// General information: 
//  MT Manager version: 2025.2.0 
//  XDA version: 2025.2.0 build 250509001 rev 1746715332 built on 2025-05-09
// Device information: 
//  DeviceId: 0080001528
//  ProductCode: MTi-670-8A1G6
//  Firmware Version: 1.0.0
//  Hardware Version: 1.0.0
// Device settings: 
//  Filter Profile: General(21.3)
//  Option Flags: Orientation Smoother Enabled, Position/Velocity Smoother Disabled, Continuous Zero Rotation Update Disabled, AHS Disabled, ICC Enabled
// Coordinate system: ENU
PacketCounter,SampleTimeFine,Acc_X,Acc_Y,Acc_Z,Gyr_X,Gyr_Y,Gyr_Z,Mag_X,Mag_Y,Mag_Z
00173,1397363,-0.043755,0.172577,9.821679,-0.003496,0.002188,0.002193,-0.245210,-0.190100,-1.331101
00174,1398363,-0.030604,0.171966,9.809017,-0.000225,0.000643,0.001747,-0.250523,-0.193246,-1.329813
00175,1399363,-0.039193,0.171654,9.822084,-0.002272,-0.000085,0.002589,-0.247342,-0.190938,-1.337941
00176,1400363,-0.033482,0.170957,9.830070,-0.000539,-0.001587,0.002273,-0.248705,-0.192607,-1.334315
00177,1401363,-0.018771,0.160561,9.823253,-0.002532,-0.000586,0.004034,-0.249402,-0.191578,-1.334882
00178,1402363,-0.033278,0.161104,9.795833,0.000187,0.002734,0.000568,-0.245475,-0.195889,-1.335302
00179,1403363,-0.028113,0.173441,9.807062,-0.000373,0.001166,0.002671,-0.250353,-0.193444,-1.338270
00180,1404363,-0.047370,0.182749,9.828021,-0.003849,0.001758,-0.000684,-0.245584,-0.191197,-1.340083
00181,1405363,-0.049128,0.160128,9.802652,-0.001694,-0.002331,0.000552,-0.244936,-0.190231,-1.335777
00182,1406363,-0.048003,0.181790,9.816718,-0.001159,0.000409,0.002087,-0.245898,-0.194992,-1.340545
00183,1407363,-0.030067,0.174208,9.807970,-0.004064,-0.000817,0.002979,-0.243254,-0.189526,-1.337940
00184,1408363,-0.054042,0.188154,9.815577,-0.005093,0.000694,0.000686,-0.243013,-0.189525,-1.336498
00185,1409363,-0.033018,0.158587,9.832501,-0.000393,0.001886,0.003826,-0.239876,-0.189980,-1.339886
00186,1410363,-0.045339,0.171856,9.802865,0.001121,0.003570,0.000779,-0.241968,-0.186893,-1.341588
00187,1411363,-0.019421,0.174843,9.821894,-0.002486,0.003494,0.002181,-0.243343,-0.191456,-1.339341
00188,1412363,-0.034112,0.164871,9.802105,-0.003698,-0.003080,0.003359,-0.240585,-0.191845,-1.341833
00189,1413363,-0.044985,0.161302,9.817982,-0.001445,-0.001177,0.000074,-0.236750,-0.193329,-1.344654
00190,1414363,-0.046092,0.172611,9.812285,-0.004052,0.000275,0.002179,-0.248214,-0.163380,-1.396322
00191,1415363,-0.044076,0.162878,9.806013,-0.001371,0.003632,0.002884,-0.237772,-0.186577,-1.347685
00192,1416363,-0.057278,0.161033,9.817291,-0.000788,-0.003400,0.004537,-0.241854,-0.192747,-1.346684
00193,1417363,-0.034365,0.178371,9.820654,-0.004463,-0.000560,0.002808,-0.242210,-0.183297,-1.353908
00194,1418363,-0.031372,0.168069,9.810378,-0.002602,0.003768,0.001562,-0.240073,-0.187218,-1.346068
00195,1419363,-0.047444,0.181345,9.819533,-0.004715,0.000020,0.003067,-0.237409,-0.184778,-1.350961
00196,1420363,-0.027360,0.161362,9.800794,-0.002922,-0.000349,0.003693,-0.243449,-0.161942,-1.345366
00197,1421363,-0.032575,0.169325,9.814501,-0.000949,-0.003605,0.000226,-0.242931,-0.191653,-1.346355
00198,1422363,-0.051968,0.171767,9.819605,-0.004439,0.000713,0.002966,-0.218432,-0.191405,-1.328356
00199,1423363,-0.037136,0.159555,9.812927,-0.001739,0.000594,0.001954,-0.239964,-0.188314,-1.352165
00200,1424363,-0.046653,0.182282,9.822917,-0.001518,0.000785,0.002926,-0.243129,-0.188891,-1.352536
00201,1425363,-0.031971,0.177304,9.803014,-0.009103,0.000965,0.001659,-0.240513,-0.184456,-1.353691
00202,1426363,-0.039181,0.158534,9.832551,-0.002544,0.000409,0.003316,-0.239310,-0.192106,-1.346859
00203,1427363,-0.048876,0.187198,9.812166,-0.002296,-0.000946,0.000217,-0.237239,-0.188571,-1.348539
00204,1428363,-0.026661,0.174612,9.807708,-0.004120,-0.000706,0.001246,-0.238613,-0.189539,-1.357170
00205,1429363,-0.029068,0.171229,9.799457,-0.001115,-0.001672,0.005392,-0.241738,-0.186191,-1.352403
00206,1430363,-0.031597,0.170980,9.807038,-0.000572,-0.003567,0.004160,-0.238508,-0.189473,-1.353390
00207,1431363,-0.052727,0.160742,9.806683,-0.004852,-0.002334,0.003076,-0.262463,-0.188822,-1.370864
00208,1432363,-0.039794,0.173473,9.805777,-0.001958,-0.001785,0.003437,-0.237250,-0.191466,-1.349918
00209,1433363,-0.035566,0.147645,9.821439,-0.000313,0.003647,0.000557,-0.248677,-0.191576,-1.330556
00210,1434363,-0.034254,0.179379,9.821178,-0.002246,-0.001177,0.004274,-0.237580,-0.193396,-1.352760
00211,1435363,-0.045700,0.173778,9.842969,-0.002155,0.002720,0.000960,-0.240426,-0.194937,-1.351668
00212,1436363,-0.032870,0.192485,9.803941,-0.002538,-0.003193,0.001962,-0.238541,-0.189342,-1.347272
00213,1437363,-0.044349,0.156328,9.816766,-0.001106,0.002100,0.001443,-0.242227,-0.185029,-1.345409
00214,1438363,-0.035931,0.182489,9.815624,-0.005715,-0.000848,0.003689,-0.240882,-0.193907,-1.350793
00215,1439363,-0.037035,0.189265,9.784653,-0.003569,0.000346,-0.000082,-0.242101,-0.187989,-1.349127
00216,1440363,-0.038166,0.190648,9.810710,-0.000627,0.001768,0.001109,-0.241552,-0.191848,-1.347601
00217,1441363,-0.031236,0.171464,9.802485,-0.000265,-0.000815,0.002319,-0.241370,-0.192746,-1.343800
00218,1442363,-0.037621,0.178446,9.815766,-0.002354,-0.000055,0.000664,-0.242629,-0.190753,-1.347272
00219,1443363,-0.036070,0.165672,9.818890,-0.002167,0.000895,0.003070,-0.239826,-0.188380,-1.354503
00220,1444363,-0.047643,0.189602,9.828665,-0.003435,0.001303,0.002300,-0.240327,-0.190113,-1.348889
00221,1445363,-0.037106,0.161780,9.823728,-0.000462,0.000378,0.002079,-0.242057,-0.188822,-1.342988
00222,1446363,-0.034245,0.154223,9.785129,-0.001393,-0.002581,0.001565,-0.241673,-0.193645,-1.342883
00223,1447363,-0.037142,0.182749,9.816458,-0.004809,-0.001049,0.004467,-0.239387,-0.191141,-1.346880
00224,1448363,-0.045116,0.168509,9.815623,-0.002165,0.000309,0.000504,-0.241831,-0.186958,-1.343925
00225,1449363,-0.044666,0.169266,9.819961,0.000488,0.003404,0.003266,-0.241656,-0.195509,-1.340503
00226,1450363,-0.040143,0.182662,9.809925,-0.002539,0.001711,0.001758,-0.243029,-0.187662,-1.338878
00227,1451363,-0.034509,0.183918,9.786344,0.001035,0.001376,0.000609,-0.242040,-0.190686,-1.340608
00228,1452363,-0.011669,0.169553,9.839845,-0.001384,0.000433,0.001087,-0.240112,-0.194739,-1.340328
00229,1453363,-0.048266,0.172022,9.811189,-0.003771,-0.000568,0.000494,-0.242919,-0.188758,-1.344976
00230,1454363,-0.040530,0.155704,9.828281,0.001640,-0.000025,0.002194,-0.245173,-0.191394,-1.347097
00231,1455363,-0.046507,0.159760,9.809949,-0.004081,-0.001213,0.007076,-0.245672,-0.193127,-1.341483
00232,1456363,-0.041297,0.157603,9.824111,-0.004536,0.000166,0.001874,-0.243035,-0.195314,-1.339257
00233,1457363,-0.034091,0.178730,9.826495,-0.005357,0.002890,0.004899,-0.242145,-0.190752,-1.344388
00234,1458363,-0.048209,0.161702,9.807754,0.000223,-0.003791,0.004854,-0.243133,-0.187728,-1.342659
00235,1459363,-0.031881,0.166110,9.849979,-0.002769,0.003175,0.004452,-0.241573,-0.188821,-1.340104
00236,1460363,-0.029426,0.175158,9.795358,-0.002290,0.000236,0.001151,-0.242419,-0.190621,-1.339712
00237,1461363,-0.043179,0.174242,9.797909,-0.004646,-0.000854,0.002702,-0.244056,-0.188563,-1.342288
00238,1462363,-0.030396,0.181067,9.800245,-0.003399,0.002851,0.002103,-0.238783,-0.189342,-1.348714
00239,1463363,-0.027209,0.166840,9.772970,-0.002186,0.000262,0.002984,-0.259814,-0.188114,-1.367259
00240,1464363,-0.045773,0.172204,9.828019,-0.000253,-0.000136,0.000463,-0.239908,-0.186252,-1.344647
00241,1465363,-0.041635,0.180480,9.796645,-0.004998,0.003286,0.003891,-0.245908,-0.189071,-1.331668
00242,1466363,-0.034516,0.161321,9.830786,-0.001658,-0.001197,0.003301,-0.240304,-0.184324,-1.346130
00243,1467363,-0.036892,0.172113,9.813190,-0.001042,0.004259,0.001662,-0.241046,-0.186057,-1.341959
00244,1468363,-0.069567,0.146911,9.809899,-0.001100,-0.001088,0.001552,-0.240541,-0.189082,-1.346572
00245,1469363,-0.040946,0.158426,9.803798,-0.004025,0.000418,0.002082,-0.241859,-0.187989,-1.347685
00246,1470363,-0.042118,0.174049,9.810543,0.000153,0.001519,0.000178,-0.238843,-0.190241,-1.346355
00247,1471363,-0.033803,0.167686,9.841753,-0.001709,-0.001103,0.002696,-0.239426,-0.195067,-1.352018
00248,1472363,-0.038892,0.164984,9.797885,-0.003004,-0.003618,0.002234,-0.236645,-0.189667,-1.351752
00249,1473363,-0.033552,0.165863,9.817004,-0.001182,-0.000623,0.003760,-0.243810,-0.189725,-1.350723
00250,1474363,-0.038561,0.166859,9.796977,-0.000410,-0.000584,0.002026,-0.237503,-0.194361,-1.352739
00251,1475363,-0.042757,0.181444,9.814097,-0.002617,0.000372,0.001847,-0.239022,-0.218923,-1.347911
00252,1476363,-0.043674,0.164048,9.832716,-0.001279,-0.001155,-0.000094,-0.240255,-0.186319,-1.349869
00253,1477363,-0.046086,0.172367,9.810900,0.001543,0.001001,0.002774,-0.240942,-0.194807,-1.348434
00254,1478363,-0.029665,0.167124,9.816935,-0.003198,0.000224,0.000008,-0.242629,-0.190753,-1.347272
00255,1479363,-0.019133,0.175280,9.788442,-0.001177,0.002483,0.002428,-0.240310,-0.191976,-1.346509
00256,1480363,-0.043386,0.179498,9.815240,-0.001284,0.000722,0.000260,-0.241645,-0.189019,-1.350002
00257,1481363,-0.034501,0.170319,9.809734,-0.003214,-0.000903,0.000169,-0.238497,-0.186579,-1.352011
00258,1482363,-0.046306,0.167316,9.830070,-0.001243,0.001244,0.003678,-0.238871,-0.191272,-1.350114
00259,1483363,-0.048179,0.170608,9.811902,-0.001137,0.003660,0.000263,-0.241540,-0.188953,-1.346222
00260,1484363,-0.042638,0.174743,9.806657,-0.000755,-0.003470,0.002544,-0.243013,-0.185930,-1.347377
00261,1485363,-0.038102,0.160373,9.811568,-0.001451,0.003064,0.001743,-0.240090,-0.185354,-1.348448
00262,1486363,-0.051729,0.171726,9.799625,-0.003211,-0.000249,0.003081,-0.237772,-0.186577,-1.347685
00263,1487363,-0.039959,0.158384,9.823801,-0.004777,-0.000945,0.002489,-0.242958,-0.192684,-1.350114
00264,1488363,-0.043081,0.169456,9.837129,-0.003399,0.000942,0.001388,-0.240915,-0.193775,-1.344675
00265,1489363,-0.049731,0.160455,9.793117,-0.002964,-0.000063,0.003488,-0.242749,-0.192551,-1.342554
00266,1490363,-0.038659,0.166507,9.815121,-0.000185,-0.004393,0.001163,-0.244996,-0.187535,-1.344297
00267,1491363,-0.037971,0.177402,9.810593,-0.003132,-0.001280,0.002367,-0.245419,-0.190232,-1.338662
00268,1492363,-0.029911,0.164007,9.836318,-0.003918,-0.000392,0.001175,-0.242810,-0.193450,-1.340195
00269,1493363,-0.031250,0.171581,9.800816,-0.001317,0.005586,0.001016,-0.243254,-0.189526,-1.337940
00270,1494363,-0.050601,0.171860,9.816076,-0.002629,-0.000575,0.003349,-0.242112,-0.194479,-1.339628
00271,1495363,-0.031894,0.166436,9.804513,-0.003074,0.002699,0.001670,-0.246535,-0.193063,-1.343471
00272,1496363,-0.036852,0.159383,9.805347,-0.003904,0.001677,0.002224,-0.243810,-0.193321,-1.339845
00273,1497363,-0.040288,0.165268,9.817219,-0.000159,0.001747,0.000071,-0.243370,-0.192487,-1.343100
00274,1498363,-0.039984,0.193272,9.813287,-0.002521,-0.000863,0.002543,-0.242568,-0.193450,-1.338753
00275,1499363,-0.048120,0.158767,9.829094,-0.002749,0.001311,0.004155,-0.243436,-0.188628,-1.341742
00276,1500363,-0.049384,0.181116,9.819341,-0.000440,0.001287,0.000940,-0.243947,-0.189660,-1.348385
00277,1501363,-0.053570,0.162615,9.799768,-0.005296,-0.001054,0.002012,-0.240838,-0.194740,-1.344654
00278,1502363,-0.035790,0.163578,9.846928,-0.002940,0.001126,0.002279,-0.248677,-0.187980,-1.341434
00279,1503363,-0.035426,0.175663,9.803583,-0.004032,-0.002031,0.001287,-0.247705,-0.189141,-1.345543
00280,1504363,-0.027300,0.167019,9.824657,0.001252,0.001978,0.000506,-0.244766,-0.190429,-1.344234
00281,1505363,-0.048907,0.172281,9.799482,-0.004879,0.000340,0.003173,-0.243469,-0.184900,-1.346502
00282,1506363,-0.067613,0.168499,9.804845,-0.001621,-0.000072,0.001071,-0.243073,-0.186829,-1.345018
00283,1507363,-0.038414,0.197923,9.816029,-0.004376,0.000226,0.001001,-0.240582,-0.221425,-1.339588
00284,1508363,-0.035603,0.191129,9.827234,-0.002383,0.002258,0.000583,-0.240656,-0.195639,-1.340853
00285,1509363,-0.024385,0.160960,9.803440,-0.003730,0.004704,0.002197,-0.241036,-0.191978,-1.350835
00286,1510363,-0.040102,0.169501,9.770133,-0.003549,0.002953,0.001422,-0.244628,-0.190494,-1.346572
00287,1511363,-0.028065,0.159897,9.848452,-0.000416,0.002094,0.001896,-0.245760,-0.195057,-1.342883
00288,1512363,-0.022467,0.163086,9.815456,-0.002614,-0.001614,-0.000492,-0.241661,-0.190751,-1.341504
00289,1513363,-0.046167,0.162107,9.831929,-0.000732,0.001412,0.005076,-0.244452,-0.186635,-1.343772
00290,1514363,-0.062771,0.170808,9.800269,-0.002733,0.000811,0.001317,-0.241766,-0.190817,-1.345284
00291,1515363,-0.031319,0.171051,9.822299,-0.005464,0.003570,0.002580,-0.245008,-0.190429,-1.345676
00292,1516363,-0.037391,0.170820,9.799721,-0.004213,-0.001583,0.004654,-0.243131,-0.162906,-1.343903
00293,1517363,-0.041628,0.161937,9.804368,-0.001808,0.002933,0.001722,-0.244233,-0.192423,-1.345088
00294,1518363,-0.046975,0.178069,9.824636,-0.002192,0.001266,0.002304,-0.232074,-0.191849,-1.337989
00295,1519363,-0.032011,0.173135,9.810521,-0.003096,-0.000308,0.001597,-0.243475,-0.192553,-1.346880
00296,1520363,-0.030295,0.176331,9.846546,-0.002061,-0.003220,0.001193,-0.245331,-0.184707,-1.348140
00297,1521363,-0.040200,0.170665,9.819818,-0.001734,0.004075,0.003644,-0.246842,-0.189205,-1.343555
00298,1522363,-0.051135,0.171009,9.820175,-0.003293,0.006614,0.001944,-0.243145,-0.190623,-1.344038
00299,1523363,-0.030524,0.183563,9.806015,-0.003715,0.003233,0.002336,-0.244601,-0.189463,-1.342813
00300,1524363,-0.047569,0.171659,9.800031,-0.004970,-0.001761,0.000631,-0.247117,-0.189074,-1.338879
00301,1525363,-0.037022,0.177410,9.818747,-0.001855,-0.004995,0.002452,-0.246001,-0.186242,-1.334069
00302,1526363,-0.049621,0.161843,9.810783,-0.004669,0.000281,0.001640,-0.246859,-0.190937,-1.335057
00303,1527363,-0.029438,0.165186,9.827973,-0.003503,0.001741,0.004254,-0.245496,-0.189268,-1.338683
00304,1528363,-0.023716,0.164952,9.823871,-0.000395,-0.002216,0.000856,-0.246435,-0.188239,-1.340692
00305,1529363,-0.040952,0.160440,9.811236,-0.003560,0.001683,0.003589,-0.246117,-0.189203,-1.339229
00306,1530363,-0.041207,0.157459,9.817388,-0.003597,0.002293,0.000513,-0.246870,-0.193831,-1.336436
00307,1531363,-0.048119,0.178585,9.837772,-0.002518,0.001244,0.001995,-0.249375,-0.190547,-1.331123
00308,1532363,-0.019607,0.141689,9.821560,-0.003046,-0.001583,-0.000487,-0.244601,-0.189463,-1.342813
00309,1533363,-0.040795,0.168641,9.811737,-0.003587,-0.000899,-0.000127,-0.250205,-0.190615,-1.339229
00310,1534363,-0.026941,0.173247,9.825277,-0.000486,0.001032,0.004030,-0.247617,-0.190807,-1.333265
00311,1535363,-0.029785,0.155942,9.805300,-0.002269,0.000296,0.001777,-0.246007,-0.193895,-1.334448
00312,1536363,-0.046881,0.170044,9.787941,0.000157,-0.000611,0.001497,-0.245210,-0.190100,-1.331101
00313,1537363,-0.035530,0.182464,9.823014,-0.001831,0.000226,0.000364,-0.249588,-0.185921,-1.339684
00314,1538363,-0.032874,0.163965,9.819343,-0.002740,-0.000148,0.001655,-0.247419,-0.189973,-1.337961
00315,1539363,-0.044544,0.174294,9.787991,-0.002511,-0.001568,0.003856,-0.247672,-0.192868,-1.340783
00316,1540363,-0.024950,0.192201,9.788610,-0.003420,0.000536,0.002521,-0.247177,-0.189973,-1.336519
00317,1541363,-0.049268,0.165054,9.826996,-0.004020,0.002434,0.004440,-0.246347,-0.186309,-1.339292
00318,1542363,-0.029112,0.183083,9.810187,-0.002876,-0.001931,-0.001556,-0.246770,-0.185411,-1.344535
00319,1543363,-0.045121,0.176475,9.797120,0.000844,0.000543,0.002586,-0.246754,-0.187275,-1.342155
00320,1544363,-0.039528,0.186066,9.827116,-0.005668,-0.001007,0.000855,-0.245117,-0.189333,-1.339579
00321,1545363,-0.026353,0.160936,9.804680,-0.002763,0.002282,0.000883,-0.246381,-0.194993,-1.343429
00322,1546363,-0.052174,0.178755,9.819796,-0.002429,0.000405,0.003307,-0.246979,-0.189139,-1.341217
00323,1547363,-0.032203,0.166594,9.823038,-0.002490,0.000701,0.002221,-0.243903,-0.190493,-1.342246
00324,1548363,-0.051771,0.165202,9.804537,-0.003828,0.002401,0.001621,-0.243318,-0.169661,-1.348083
00325,1549363,-0.050809,0.153703,9.818387,0.000725,0.000124,0.003938,-0.244761,-0.195187,-1.343233
00326,1550363,-0.035621,0.169842,9.797788,-0.001286,0.001980,-0.001658,-0.247270,-0.194335,-1.317164
00327,1551363,-0.037650,0.168720,9.823682,-0.002325,0.000197,0.002453,-0.247375,-0.187211,-1.342701
00328,1552363,-0.056347,0.169536,9.789254,-0.004070,0.000390,0.002248,-0.244919,-0.188499,-1.344276
00329,1553363,-0.035318,0.172409,9.834576,-0.001614,0.005234,0.001866,-0.243975,-0.194286,-1.341266
00330,1554363,-0.009200,0.184578,9.821345,-0.003150,0.000856,0.000357,-0.245584,-0.191197,-1.340083
00331,1555363,-0.045119,0.183012,9.803416,-0.001855,0.000445,0.000564,-0.241431,-0.193645,-1.341441
00332,1556363,-0.050906,0.172322,9.799244,-0.002255,0.000212,0.004271,-0.243029,-0.187662,-1.338878
00333,1557363,-0.039081,0.192348,9.793641,-0.003235,0.002152,0.000756,-0.246221,-0.189269,-1.343009
00334,1558363,-0.032301,0.167302,9.809136,-0.000821,-0.001150,0.001497,-0.242859,-0.187859,-1.347335
00335,1559363,-0.046616,0.169891,9.802366,-0.002182,0.002152,-0.000350,-0.247876,-0.194163,-1.358221
00336,1560363,-0.053046,0.177244,9.806587,-0.001803,-0.000021,0.003738,-0.244919,-0.188499,-1.344276
00337,1561363,-0.038147,0.163970,9.816694,-0.001574,0.000999,0.001589,-0.245875,-0.189203,-1.337787
00338,1562363,-0.035804,0.159519,9.805298,0.000679,-0.000161,0.005139,-0.242387,-0.190753,-1.345830
00339,1563363,-0.055138,0.172284,9.847403,-0.000879,0.000673,0.001644,-0.243457,-0.185601,-1.334244
00340,1564363,-0.040926,0.173373,9.805583,0.001735,-0.004277,0.002178,-0.240903,-0.190881,-1.343296
00341,1565363,-0.049926,0.174029,9.804679,-0.001676,-0.003788,0.002169,-0.244530,-0.198081,-1.343170
00342,1566363,-0.053160,0.158598,9.809637,0.001054,0.000713,0.001340,-0.245980,-0.189269,-1.341567
00343,1567363,-0.024607,0.166430,9.796359,-0.002365,0.000108,0.001948,-0.244282,-0.190428,-1.341350
00344,1568363,-0.037839,0.180479,9.829235,-0.000179,0.000135,0.002716,-0.245122,-0.184575,-1.340579
00345,1569363,-0.039334,0.179166,9.805181,-0.002159,-0.000198,0.000296,-0.245430,-0.193127,-1.340041
00346,1570363,-0.033989,0.182730,9.816387,-0.006574,-0.000383,0.000659,-0.245017,-0.184508,-1.336799
00347,1571363,-0.049416,0.180011,9.795857,-0.001755,0.000671,0.002291,-0.243650,-0.187597,-1.339424
00348,1572363,-0.049475,0.180001,9.801579,-0.001198,0.000199,0.003710,-0.253194,-0.192552,-1.357934
00349,1573363,-0.038522,0.163432,9.805988,0.001777,0.002673,0.002023,-0.243875,-0.189461,-1.338486
00350,1574363,-0.044920,0.166051,9.807088,-0.003219,0.003009,0.001127,-0.243320,-0.185667,-1.336582
00351,1575363,-0.056691,0.179320,9.819865,0.001179,0.000822,0.002014,-0.244726,-0.186503,-1.339095
00352,1576363,-0.023478,0.184094,9.780672,-0.006382,0.004678,0.003601,-0.239036,-0.195832,-1.340657
00353,1577363,-0.046873,0.171127,9.832287,-0.001390,0.002909,0.001322,-0.241282,-0.190816,-1.342400
00354,1578363,-0.040798,0.171705,9.795308,-0.001137,0.003154,0.003568,-0.243650,-0.187597,-1.339424
00355,1579363,-0.030216,0.176257,9.807611,-0.001217,0.007153,-0.000714,-0.243018,-0.184767,-1.337499
00356,1580363,-0.024925,0.171928,9.808755,-0.000812,0.000470,0.003567,-0.241827,-0.191716,-1.342925
00357,1581363,-0.038743,0.171850,9.815190,0.001860,0.001919,-0.000684,-0.242848,-0.184965,-1.345956
00358,1582363,-0.052274,0.169953,9.806347,-0.001635,0.002541,0.005089,-0.240645,-0.192744,-1.339474
00359,1583363,-0.044495,0.179739,9.822724,0.001765,0.001217,0.000275,-0.241557,-0.190685,-1.337723
00360,1584363,-0.052218,0.169863,9.799077,-0.003347,-0.001770,-0.000471,-0.242672,-0.193516,-1.342533
00361,1585363,-0.043834,0.156922,9.820294,-0.001206,-0.001390,0.002243,-0.241524,-0.190816,-1.343842
00362,1586363,-0.045897,0.167228,9.794833,-0.002861,0.001016,0.000160,-0.241777,-0.193712,-1.346663
00363,1587363,-0.044204,0.156825,9.827568,-0.005122,0.002029,0.001793,-0.241161,-0.189018,-1.347118
00364,1588363,-0.032095,0.166178,9.776545,-0.000955,0.003088,0.001232,-0.241596,-0.194610,-1.342862
00365,1589363,-0.038845,0.165228,9.799817,-0.005701,-0.000644,0.003888,-0.243601,-0.189593,-1.343163
00366,1590363,-0.033179,0.181245,9.825136,-0.003931,-0.002241,0.002935,-0.239541,-0.189212,-1.346922
00367,1591363,-0.038844,0.158651,9.822179,-0.001679,-0.002584,0.005076,-0.227269,-0.192522,-1.387810
00368,1592363,-0.056438,0.173321,9.800387,-0.002350,0.003115,0.002021,-0.241952,-0.188756,-1.339208
00369,1593363,-0.040210,0.169269,9.804585,-0.006197,-0.001408,0.002249,-0.241612,-0.192746,-1.345242
00370,1594363,-0.056976,0.172488,9.801459,-0.000323,0.001758,0.003224,-0.237953,-0.189274,-1.340607
00371,1595363,-0.041554,0.165764,9.829187,-0.000347,0.000963,0.004134,-0.243903,-0.190493,-1.342246
00372,1596363,-0.045425,0.182895,9.807372,0.000144,0.001288,0.003635,-0.245612,-0.192228,-1.343842
00373,1597363,-0.034554,0.178468,9.809758,-0.002456,0.000357,0.004076,-0.240678,-0.189017,-1.344234
00374,1598363,-0.046247,0.179449,9.767463,-0.004248,-0.000234,0.000823,-0.243315,-0.186830,-1.346460
00375,1599363,-0.042237,0.174178,9.810616,-0.004317,0.002538,0.002437,-0.239876,-0.186384,-1.350765
00376,1600363,0.079511,0.216398,9.770492,-0.008419,-0.007819,-0.003879,-0.239057,-0.185616,-1.354916
00377,1601363,0.807582,0.003806,9.881639,-0.011581,-0.047705,0.051437,-0.237776,-0.181819,-1.348685
00378,1602363,1.718321,0.122180,10.149657,-0.018620,-0.115485,0.053126,-0.231333,-0.182925,-1.363918
00379,1603363,1.893094,0.223624,9.838009,-0.010227,-0.011407,0.015043,-0.227295,-0.184737,-1.381314
00380,1604363,0.911766,-0.077839,10.089331,-0.011948,0.024094,0.033153,-0.229261,-0.172199,-1.387354
00381,1605363,0.401127,0.083602,9.410154,0.031515,-0.006442,0.013392,-0.231981,-0.173104,-1.400858
00382,1606363,0.752867,0.539088,9.598377,0.045332,-0.156510,-0.017501,-0.230112,-0.162050,-1.409720
00383,1607363,1.739241,0.973625,9.602251,-0.035889,-0.197864,0.027805,-0.242073,-0.158194,-1.432394
00384,1608363,2.902544,-0.620617,11.100662,0.003558,0.148704,0.067949,-0.221569,-0.147804,-1.455508
00385,1609363,0.312950,-0.438329,10.995696,0.192008,0.063127,0.068318,-0.243689,-0.159163,-1.442468
00386,1610363,0.319178,1.623400,7.870056,-0.043546,-0.040996,-0.067689,-0.224026,-0.155330,-1.464189
00387,1611363,-0.167780,-0.651709,11.808054,-0.142367,-0.135654,0.090817,-0.246967,-0.148665,-1.416608
00388,1612363,2.686380,0.474238,9.838951,-0.023237,-0.080286,-0.138302,-0.197056,-0.143852,-1.488898
00389,1613363,1.249996,-0.900212,10.352778,0.062407,-0.151755,0.117482,-0.232695,-0.155829,-1.447319
00390,1614363,1.057127,-0.316880,10.626734,0.029793,0.076573,-0.044021,-0.204478,-0.152834,-1.459056
00391,1615363,0.688093,-0.111133,10.477142,-0.089581,0.099630,-0.016069,-0.235084,-0.153180,-1.425967
00392,1616363,-0.240820,-0.688656,10.334952,0.009137,0.014316,0.030667,-0.236319,-0.148994,-1.415802
00393,1617363,-0.050764,-0.208412,9.590626,0.053393,0.030492,-0.020875,-0.239044,-0.148737,-1.419429
00394,1618363,0.415714,0.800286,9.573233,-0.038818,0.027841,-0.008912,-0.231408,-0.147976,-1.429831
00395,1619363,0.282296,-0.401468,10.764274,-0.026290,0.016627,-0.097764,-0.214553,-0.150574,-1.455577
00396,1620363,0.392972,-0.087070,10.086798,0.030390,0.040861,-0.070177,-0.199996,-0.158571,-1.478707
00397,1621363,0.175035,0.883685,8.900930,-0.039580,0.128142,-0.128335,-0.210644,-0.165433,-1.457755
00398,1622363,0.042036,-0.993067,10.997211,-0.033586,-0.012060,-0.107780,-0.202364,-0.158948,-1.464853
00399,1623363,-0.104058,0.156196,8.579858,-0.029841,0.018651,-0.166403,-0.206809,-0.163321,-1.471455
00400,1624363,0.675017,-0.111052,8.403927,-0.017537,-0.008178,-0.178024,-0.191668,-0.159301,-1.510677
00401,1625363,0.095188,-0.078573,11.501644,-0.011937,0.001676,-0.182633,-0.207255,-0.161021,-1.501213
00402,1626363,-0.496539,-0.937751,10.469615,-0.039873,0.011899,-0.160033,-0.211661,-0.165064,-1.491798
00403,1627363,0.407601,-0.929493,10.103895,-0.034925,-0.060193,-0.146221,-0.198625,-0.168042,-1.512344
00404,1628363,0.044068,-0.567376,10.000218,0.052270,0.091981,-0.147988,-0.199269,-0.173767,-1.515648
00405,1629363,-0.271538,-0.296491,10.370590,0.056083,0.025096,-0.165978,-0.222860,-0.185698,-1.492885
00406,1630363,-0.477213,0.298601,9.269781,-0.065173,0.004349,-0.208436,-0.212940,-0.191249,-1.517540
00407,1631363,0.687312,-1.630374,10.476811,0.038566,0.023475,-0.191562,-0.205726,-0.185995,-1.544064
00408,1632363,0.358642,-0.803364,12.862980,0.045333,0.016823,-0.168452,-0.209786,-0.186376,-1.540305
00409,1633363,0.167942,0.102358,8.269896,-0.041205,0.065278,-0.221825,-0.223637,-0.194144,-1.535742
00410,1634363,-0.238116,0.020212,8.283266,-0.054328,-0.009543,-0.283220,-0.212029,-0.198528,-1.540425
00411,1635363,-0.405897,-1.355662,9.313241,-0.052060,0.023257,-0.134940,-0.223881,-0.213747,-1.514805
00412,1636363,-0.300194,-0.702531,8.822801,0.004519,-0.024314,-0.237155,-0.230754,-0.215800,-1.516073
00413,1637363,-0.165708,0.399990,10.466298,-0.018470,-0.093061,-0.224324,-0.234551,-0.219207,-1.518369
00414,1638363,0.435775,-0.754135,8.769755,-0.050570,0.003564,-0.126649,-0.239050,-0.220422,-1.511355
00415,1639363,-0.288488,-0.530663,7.751966,0.025526,-0.018986,-0.044955,-0.265191,-0.228236,-1.489418
00416,1640363,-0.330492,0.030101,10.270495,-0.009684,-0.023372,-0.001059,-0.269283,-0.232081,-1.468662
00417,1641363,0.416387,-0.050314,8.771885,-0.041050,-0.098106,-0.055623,-0.267927,-0.234469,-1.483545
00418,1642363,0.375202,-0.118326,10.895012,0.009844,0.021117,-0.020011,-0.264928,-0.234857,-1.484595
00419,1643363,0.132843,-0.567798,11.361529,-0.004712,-0.047873,-0.030448,-0.270400,-0.243727,-1.483728
00420,1644363,0.051660,-0.133789,9.884850,0.045753,0.003283,-0.013411,-0.278970,-0.235807,-1.474956
00421,1645363,0.342644,-0.534538,8.826595,0.008304,0.021920,-0.032540,-0.271954,-0.238577,-1.475026
00422,1646363,0.310310,0.139739,10.503197,0.016557,-0.054725,0.004723,-0.290449,-0.227539,-1.420843
00423,1647363,-0.002336,0.972715,9.395870,0.015878,0.034974,-0.005013,-0.277366,-0.237732,-1.466262
00424,1648363,0.009298,0.755162,11.767046,0.028976,-0.006224,-0.021316,-0.265230,-0.235757,-1.483678
00425,1649363,0.163287,0.899900,10.667533,-0.044069,0.032672,-0.049888,-0.269559,-0.240765,-1.474242
00426,1650363,-0.012156,0.058999,9.751078,0.034795,-0.039224,0.005830,-0.267725,-0.241989,-1.476363
00427,1651363,0.185322,0.266313,8.933242,-0.017676,-0.010422,-0.028557,-0.265901,-0.242512,-1.490742
00428,1652363,-0.078786,0.765465,9.073576,-0.039700,-0.023323,-0.033911,-0.268922,-0.239097,-1.482194
00429,1653363,0.665124,-0.744969,7.749876,0.033169,-0.118314,0.074632,-0.263581,-0.231325,-1.490601
00430,1654363,0.091335,-0.499949,11.950720,0.018343,0.057191,-0.067432,-0.281156,-0.233487,-1.468180
00431,1655363,0.794917,0.097856,8.960877,-0.017947,-0.081281,-0.015132,-0.265285,-0.234223,-1.502075
00432,1656363,0.411149,-0.786537,10.400267,-0.022574,0.038474,0.002647,-0.263774,-0.236916,-1.484903
00433,1657363,0.141335,-1.253682,9.585831,0.032417,0.041465,-0.012912,-0.265456,-0.246436,-1.492996
00434,1658363,-0.337391,-0.637658,9.634012,0.028821,0.004966,-0.012144,-0.268445,-0.246749,-1.479689
00435,1659363,-0.238561,-0.648854,10.530385,0.004638,0.038055,-0.000414,-0.270142,-0.245590,-1.479906
00436,1660363,-0.224834,0.219358,11.666950,0.031526,-0.004767,-0.001475,-0.265927,-0.238323,-1.473367
00437,1661363,0.177755,1.008153,10.111036,-0.011492,-0.032663,-0.009853,-0.272389,-0.240574,-1.481649
00438,1662363,0.227853,0.777960,11.208786,-0.012268,-0.059804,-0.017717,-0.256582,-0.232231,-1.493051
00439,1663363,0.555350,-0.324625,10.032056,-0.009404,-0.012365,-0.002134,-0.270373,-0.242697,-1.479969
00440,1664363,0.327687,-0.644683,9.808298,0.000478,0.023188,-0.015341,-0.259385,-0.247016,-1.485197
00441,1665363,-0.254713,0.069560,10.938414,-0.029559,-0.041614,-0.020167,-0.271840,-0.244432,-1.480123
00442,1666363,-0.728854,0.624247,10.114787,-0.097081,-0.033121,0.023475,-0.262928,-0.238712,-1.474417
00443,1667363,0.302331,-0.856109,8.663112,0.006687,-0.011115,0.060121,-0.274591,-0.236390,-1.477252
00444,1668363,0.732854,-0.200040,9.634508,0.102185,0.070139,-0.045480,-0.247441,-0.238221,-1.497538
00445,1669363,-0.005500,-0.299407,12.282507,-0.010116,0.046252,0.003328,-0.270994,-0.246228,-1.469636
00446,1670363,-0.479097,-0.330627,11.340951,-0.146964,0.119454,-0.094809,-0.249771,-0.243488,-1.488802
00447,1671363,-0.430145,-0.684473,9.909114,-0.030454,-0.101054,-0.005531,-0.262269,-0.240071,-1.489866
00448,1672363,0.055938,0.885915,8.459658,0.060815,0.065844,-0.004302,-0.248601,-0.247410,-1.486730
00449,1673363,0.320075,-0.442457,9.124583,-0.033678,-0.050771,-0.006978,-0.252452,-0.244063,-1.486289
00450,1674363,0.191382,0.612389,10.404239,0.006349,0.041424,-0.025964,-0.247188,-0.238921,-1.483838
00451,1675363,0.320449,-0.082146,9.572783,-0.027551,-0.034681,0.023275,-0.255242,-0.243542,-1.477679
00452,1676363,-0.111987,0.066419,9.478424,-0.015123,0.016084,-0.013795,-0.263472,-0.236017,-1.485820
00453,1677363,0.278909,-0.302027,9.559954,0.050909,-0.038153,-0.001945,-0.255254,-0.246437,-1.479058
00454,1678363,0.295971,0.377262,11.489017,-0.006719,0.033482,-0.019099,-0.274902,-0.240531,-1.402811
00455,1679363,0.563515,-0.560221,10.159081,-0.036305,-0.035881,-0.004947,-0.239690,-0.250506,-1.491280
00456,1680363,0.066600,-1.020711,11.685912,0.005024,0.021359,-0.014836,-0.243711,-0.246962,-1.482383
00457,1681363,0.564338,-0.326055,8.495955,0.051195,0.023962,-0.011297,-0.234542,-0.248325,-1.493989
00458,1682363,-0.438080,0.413763,11.458273,-0.016776,-0.022423,-0.007933,-0.240414,-0.245288,-1.474472
00459,1683363,-0.036521,-1.165466,9.211570,-0.006334,0.000537,-0.022180,-0.241151,-0.244589,-1.491056
00460,1684363,-0.136322,-0.325874,10.478261,-0.003453,-0.015847,-0.024289,-0.234568,-0.236945,-1.498370
00461,1685363,0.068854,-0.097891,8.863410,0.014054,0.031424,-0.015520,-0.233075,-0.242994,-1.504713
00462,1686363,0.047192,-0.023799,9.317525,0.003900,0.066144,0.000951,-0.220928,-0.241720,-1.509872
00463,1687363,-0.736739,0.367205,8.286497,-0.025006,0.000884,-0.033392,-0.205904,-0.249476,-1.564509
00464,1688363,-0.287685,-0.212129,9.988167,-0.000063,-0.001381,-0.008470,-0.223537,-0.242097,-1.497460
00465,1689363,0.437890,-0.107265,8.533005,0.014158,-0.000419,-0.006500,-0.230026,-0.245378,-1.509501
00466,1690363,-0.139864,0.637557,9.292244,0.006425,-0.027218,-0.012714,-0.227350,-0.240044,-1.513015
00467,1691363,0.337643,0.118032,10.536943,-0.027765,0.001935,-0.008236,-0.228680,-0.241845,-1.515507
00468,1692363,0.234187,-0.281850,10.021749,-0.039212,-0.009322,-0.023705,-0.226811,-0.234386,-1.513490
00469,1693363,0.190709,-0.343711,9.599796,0.014227,0.004735,-0.018908,-0.236953,-0.237082,-1.518910
00470,1694363,-0.087632,-0.833600,11.579059,-0.025909,-0.021334,-0.029300,-0.233889,-0.244925,-1.510439
00471,1695363,0.113794,-0.560387,8.658264,0.028221,-0.065754,-0.002994,-0.239487,-0.247240,-1.516733
00472,1696363,0.401153,-0.032095,9.221352,0.006952,-0.011955,-0.002769,-0.232807,-0.247182,-1.520646
00473,1697363,0.310799,-0.340090,9.122292,0.028046,-0.010565,0.007499,-0.242773,-0.249614,-1.512386
00474,1698363,0.665413,0.107249,9.830377,-0.006381,-0.002655,-0.027521,-0.234344,-0.240300,-1.520443
00475,1699363,0.317731,0.073197,8.275040,0.010139,0.011911,-0.008978,-0.241817,-0.241720,-1.540632
00476,1700363,-0.161501,-0.189117,10.203311,0.039115,0.052194,0.000704,-0.234510,-0.250081,-1.532120
00477,1701363,0.099525,0.500728,9.949353,-0.004715,-0.013566,0.004507,-0.239120,-0.246604,-1.529887
00478,1702363,0.122035,0.577630,10.620621,0.010052,-0.020047,-0.029780,-0.240833,-0.247177,-1.521605
00479,1703363,0.412599,0.388822,9.719043,0.012168,0.016045,0.000664,-0.237340,-0.253485,-1.528648
00480,1704363,-0.050675,-0.082879,11.805042,0.023194,-0.032038,0.014984,-0.226280,-0.241600,-1.535479
00481,1705363,0.234088,-0.354615,10.068687,0.012165,-0.043650,0.019877,-0.241922,-0.245382,-1.533534
00482,1706363,0.218019,-0.595694,11.575850,0.006775,-0.004803,-0.024712,-0.235846,-0.247123,-1.535613
00483,1707363,0.368348,-0.900552,10.773661,-0.019531,-0.027595,-0.004891,-0.241988,-0.253933,-1.531554
00484,1708363,0.304767,-0.278989,11.448853,0.000095,0.021143,-0.007343,-0.232824,-0.250539,-1.544161
00485,1709363,0.393233,-0.125126,9.450847,-0.005971,0.008253,-0.042035,-0.244274,-0.252842,-1.538435
00486,1710363,0.299035,-0.800625,11.467052,-0.013989,0.069039,-0.005135,-0.231681,-0.243081,-1.546470
00487,1711363,-0.212819,-0.153796,8.956226,-0.032447,0.050474,-0.008310,-0.240587,-0.248339,-1.530041
00488,1712363,-0.478002,-0.389167,8.244888,-0.013626,0.034560,-0.000976,-0.231312,-0.237225,-1.538489
00489,1713363,-0.032230,-0.264668,9.154897,0.043794,0.016757,-0.009045,-0.237361,-0.243268,-1.542907
00490,1714363,-0.181670,0.317490,9.387563,0.029355,-0.048633,-0.020452,-0.229560,-0.245137,-1.541010
00491,1715363,0.132211,0.405567,8.778527,0.005094,-0.048271,-0.002854,-0.241407,-0.257923,-1.536146
00492,1716363,0.163950,0.330003,10.092047,-0.005557,-0.061443,-0.013341,-0.234115,-0.248414,-1.541514
00493,1717363,0.474727,-0.090310,10.031163,-0.009401,-0.029002,-0.000051,-0.245148,-0.255672,-1.541802
00494,1718363,0.497134,0.236331,10.028578,-0.020966,0.048430,0.009928,-0.233494,-0.244883,-1.551847
00495,1719364,-0.563114,-0.552194,10.777371,-0.006346,-0.001565,-0.008847,-0.202765,-0.254341,-1.641800
00496,1720364,-0.130234,-0.645257,12.099622,0.004093,0.024950,-0.018112,-0.246300,-0.244798,-1.531238
00497,1721364,0.256409,-0.275871,9.666432,-0.054228,-0.031935,-0.041667,-0.248032,-0.248728,-1.546471
00498,1722364,-0.284606,-0.252553,12.012776,-0.035243,0.022744,-0.014825,-0.245235,-0.245192,-1.543825
00499,1723364,0.028258,-0.296542,11.078783,-0.002539,-0.029680,-0.024706,-0.245341,-0.257669,-1.546983
00500,1724364,0.289759,-0.037330,9.300900,-0.017418,0.034501,-0.008717,-0.237494,-0.247960,-1.539568
00501,1725364,0.463573,-0.049975,9.533871,0.032287,0.007313,0.008079,-0.240456,-0.252462,-1.543636
00502,1726364,-0.745879,0.164055,11.710125,0.043746,-0.000255,0.015996,-0.235901,-0.252781,-1.532253
00503,1727364,-0.253607,0.322460,10.010415,0.042828,-0.026610,0.000588,-0.251636,-0.253734,-1.532709
00504,1728364,-0.298592,0.159743,11.298909,0.072467,-0.088231,-0.024027,-0.247153,-0.250655,-1.542103
00505,1729364,0.696889,0.421865,9.933517,0.034937,-0.008020,0.028867,-0.256586,-0.255082,-1.534698
00506,1730364,0.466711,-0.341807,11.219290,0.012095,-0.027223,-0.006792,-0.240093,-0.250663,-1.546912
00507,1731364,-0.006306,-0.703918,10.706832,0.041475,0.007328,-0.009964,-0.246138,-0.265059,-1.539451
00508,1732364,0.495844,-0.130365,9.105923,0.014987,0.074374,-0.014961,-0.235726,-0.254141,-1.550587
00509,1733364,-0.292979,0.273123,11.763053,-0.018767,0.043949,-0.008360,-0.249142,-0.259912,-1.539402
00510,1734364,0.315551,0.097563,9.761484,-0.046559,0.024334,0.007976,-0.243774,-0.254704,-1.533171
00511,1735364,0.044303,-0.473410,10.581277,0.019557,-0.008538,-0.014643,-0.245852,-0.262296,-1.542748
00512,1736364,0.185287,-0.986190,10.871838,-0.030619,-0.047353,-0.004974,-0.241143,-0.260949,-1.542202
00513,1737364,-0.238607,-0.891055,10.544374,-0.063723,-0.041360,-0.003730,-0.247386,-0.268987,-1.551800
00514,1738364,0.305127,-0.612203,8.945678,-0.042294,-0.012691,-0.032055,-0.243731,-0.260757,-1.548166
00515,1739364,0.504474,0.268067,6.406064,-0.041525,0.067905,-0.008294,-0.238572,-0.255682,-1.549495
00516,1740364,-0.290896,0.581907,9.464450,0.002814,0.001385,-0.027835,-0.241747,-0.250337,-1.540990
00517,1741364,0.155863,0.162412,10.170010,0.014157,0.021260,0.002735,-0.251905,-0.254765,-1.537910
00518,1742364,0.555552,0.139411,8.053492,-0.017770,0.011121,-0.005341,-0.241658,-0.248407,-1.539590
00519,1743364,0.692638,-0.200621,10.141183,-0.030892,0.050522,-0.002509,-0.234770,-0.253437,-1.557077
00520,1744364,0.089519,-0.020335,11.217739,0.005639,0.110003,-0.045772,-0.231721,-0.259417,-1.550987
00521,1745364,0.318622,0.699724,8.103116,-0.037132,0.017162,-0.033018,-0.224008,-0.263216,-1.550489
00522,1746364,-0.899336,-0.169495,10.805908,-0.036164,-0.013705,-0.033452,-0.235891,-0.258701,-1.541130
00523,1747364,0.368964,-0.290771,9.636987,-0.089949,0.033017,-0.028166,-0.234375,-0.258962,-1.544714
00524,1748364,-0.036536,-0.117214,9.210793,0.004815,-0.147793,0.014266,-0.224353,-0.250872,-1.556334
00525,1749364,-0.064447,-0.151958,10.208548,-0.029416,0.161009,-0.016794,-0.239225,-0.255485,-1.543923
00526,1750364,-0.201304,0.357259,6.786083,0.017243,-0.263871,-0.081962,-0.224765,-0.247080,-1.560198
00527,1751364,-0.269169,-0.389884,11.684879,-0.049518,0.129426,-0.044583,-0.263031,-0.262791,-1.529721
00528,1752364,0.469676,0.983739,7.909734,0.012352,-0.111286,-0.035509,-0.215900,-0.261754,-1.570265
00529,1753364,-1.178503,-0.907089,13.983398,-0.043626,0.012811,0.023327,-0.267977,-0.272492,-1.519830
00530,1754364,0.820752,0.883063,8.399108,0.132529,-0.018899,-0.030592,-0.199358,-0.259331,-1.586218
00531,1755364,-0.136035,1.160122,10.518989,0.063276,0.139575,0.018305,-0.251325,-0.274761,-1.531002
00532,1756364,-0.037059,0.552091,7.676971,-0.009447,0.008910,-0.003693,-0.215779,-0.267147,-1.553226
00533,1757364,-0.278699,-0.110522,8.746254,-0.037330,0.035603,-0.012980,-0.243831,-0.269177,-1.540067
00534,1758364,0.292811,-0.203493,7.956170,0.002801,-0.035957,-0.017491,-0.225108,-0.271507,-1.542041
00535,1759364,0.387290,-0.648000,9.248717,0.019518,-0.000156,0.000275,-0.236415,-0.278634,-1.537652
00536,1760364,0.321040,0.284120,8.096376,0.018477,-0.053540,-0.035255,-0.226256,-0.270611,-1.551610
00537,1761364,0.059945,-0.801725,8.861822,-0.035414,-0.043523,-0.021963,-0.238694,-0.269890,-1.544155
00538,1762364,-0.165071,-0.621948,10.080258,-0.021131,-0.059783,-0.003536,-0.236743,-0.268154,-1.541117
00539,1763364,0.011284,-0.645461,11.917058,0.039535,-0.062786,-0.012483,-0.236315,-0.277406,-1.523994
00540,1764364,0.273660,-0.476704,12.376220,0.040411,0.009305,-0.004572,-0.238920,-0.271755,-1.543217
00541,1765364,0.181674,0.406705,7.174469,0.025546,0.007393,-0.011401,-0.242728,-0.278056,-1.546893
00542,1766364,-0.181431,0.253255,10.541801,-0.000590,-0.008422,-0.003383,-0.239454,-0.278575,-1.552619
00543,1767364,-0.173462,0.330570,8.894355,0.047574,0.004335,-0.014399,-0.255381,-0.288716,-1.536499
00544,1768364,0.354599,1.025414,10.732268,0.047810,-0.024354,-0.004311,-0.244695,-0.281524,-1.541433
00545,1769364,0.057204,1.594990,8.455197,-0.016138,0.002293,-0.004047,-0.252040,-0.284280,-1.533327
00546,1770364,-0.129271,-0.172317,10.826512,-0.033194,-0.033674,0.013993,-0.245123,-0.279463,-1.536799
00547,1771364,0.183969,0.220643,10.069516,0.035217,-0.003324,-0.012922,-0.251145,-0.284475,-1.537457
00548,1772364,0.121975,0.872099,9.602929,-0.010765,0.002671,-0.025302,-0.254749,-0.282290,-1.545452
00549,1773364,0.208848,0.651029,10.394902,-0.045404,0.031473,-0.029215,-0.251789,-0.293795,-1.529884
00550,1774364,-0.017850,0.805464,9.691133,-0.041686,-0.029969,-0.013302,-0.273756,-0.283071,-1.465278
00551,1775364,-0.082879,0.031441,10.704968,0.000789,0.007262,-0.015695,-0.250168,-0.293989,-1.529687
00552,1776364,0.287780,0.541686,8.725224,0.010858,0.035747,-0.034060,-0.241235,-0.287700,-1.542357
00553,1777364,0.053079,-0.189535,11.934937,0.018681,0.023613,0.008027,-0.256196,-0.303058,-1.541603
00554,1778364,-0.012501,0.367713,9.676321,-0.009838,0.069674,-0.016417,-0.240788,-0.286405,-1.523477
00555,1779364,-0.247255,-0.471308,10.076777,0.048409,-0.010365,-0.008455,-0.247602,-0.287559,-1.527104
00556,1780364,-0.143638,0.815808,10.770237,0.019122,-0.008136,-0.009340,-0.241663,-0.289235,-1.526845
00557,1781364,-0.249831,0.404949,10.942975,-0.027141,-0.057928,-0.003083,-0.244201,-0.294635,-1.525669
00558,1782364,0.261492,0.768866,10.266347,0.000844,-0.003509,-0.024728,-0.238509,-0.291553,-1.527853
00559,1783364,-0.073073,0.451462,11.187770,-0.022534,0.000583,0.016715,-0.230917,-0.293555,-1.533516
00560,1784364,0.244277,-0.247866,7.873021,-0.008678,0.026897,0.002890,-0.230620,-0.287898,-1.535434
00561,1785364,0.011940,-0.033764,8.709075,0.028279,-0.008474,-0.012918,-0.247233,-0.290519,-1.529379
00562,1786364,0.106573,0.772866,9.457842,0.008010,0.022166,-0.037347,-0.234763,-0.291371,-1.542953
00563,1787364,0.379960,0.376734,7.383220,-0.030780,-0.063117,-0.004870,-0.244933,-0.298693,-1.541252
00564,1788364,0.310035,-0.020368,11.375078,-0.009660,0.011917,-0.006920,-0.237834,-0.294776,-1.540923
00565,1789364,-0.148420,-0.251494,8.815937,0.024963,-0.033467,-0.032853,-0.250355,-0.300743,-1.533867
00566,1790364,0.528478,0.227191,8.454670,0.036473,0.061698,-0.013286,-0.232605,-0.298317,-1.542610
00567,1791364,-0.020153,0.575594,9.638850,0.019992,0.062878,-0.011781,-0.247345,-0.301833,-1.522660
00568,1792364,-0.172645,0.761586,8.271337,-0.006078,0.027753,-0.027589,-0.242059,-0.299717,-1.527706
00569,1793364,-0.236863,0.351934,8.609528,0.002704,-0.035012,-0.009812,-0.248784,-0.302537,-1.519055
00570,1794364,0.409720,0.566666,7.933347,0.004042,-0.001666,-0.008194,-0.233874,-0.302815,-1.536583
00571,1795364,-0.256880,1.571162,11.222790,0.002373,0.025681,-0.018787,-0.245374,-0.311938,-1.537375
00572,1796364,-0.187041,1.000197,9.994289,-0.001225,0.013121,-0.022030,-0.236945,-0.306220,-1.534553
00573,1797364,0.181356,-0.028557,9.126966,0.010998,0.035865,0.014821,-0.246114,-0.304856,-1.522947
00574,1798364,-0.188643,0.660467,9.109306,0.012951,-0.044061,-0.019205,-0.231511,-0.301275,-1.540559
00575,1799364,-0.784405,0.620683,9.702910,-0.027467,0.027283,-0.008573,-0.252948,-0.302985,-1.519076
00576,1800364,0.069799,0.255641,10.032393,-0.010051,-0.023149,0.008377,-0.232956,-0.297222,-1.537954
00577,1801364,0.471054,0.097403,8.866237,0.009710,0.061633,-0.027676,-0.241433,-0.304540,-1.526160
00578,1802364,0.215115,0.346688,10.722367,-0.034814,0.062536,-0.057693,-0.227875,-0.303592,-1.538683
00579,1803364,-0.205809,-0.715069,10.827550,-0.054641,-0.020520,-0.006132,-0.247060,-0.311481,-1.525334
00580,1804364,-0.287834,0.210256,10.055761,0.008715,-0.012954,-0.013746,-0.255466,-0.304219,-1.547154
00581,1805364,-0.129661,0.550763,10.047789,0.025649,-0.022861,-0.025342,-0.238522,-0.306859,-1.528610
00582,1806364,0.272653,0.506572,10.018744,0.000421,-0.013675,0.009780,-0.265879,-0.298316,-1.462737
00583,1807364,0.135141,1.248801,9.352610,0.037033,-0.018378,-0.013670,-0.240296,-0.304735,-1.528848
00584,1808364,0.149054,1.501915,9.857069,-0.004347,-0.014922,-0.023229,-0.239110,-0.306926,-1.535275
00585,1809364,-0.409860,1.603694,9.606793,-0.015658,-0.010945,0.012987,-0.251927,-0.309736,-1.516045
00586,1810364,-0.157140,0.188621,8.532706,-0.007433,-0.090593,-0.000070,-0.240241,-0.302674,-1.521329
00587,1811364,-0.513907,-0.206888,11.664428,-0.014302,0.020612,-0.018561,-0.254664,-0.315969,-1.510172
00588,1812364,0.322340,0.364326,10.210450,0.003453,0.041855,-0.006591,-0.249027,-0.314949,-1.519874
00589,1813364,0.041575,1.187085,8.772337,-0.083835,0.010069,-0.015794,-0.239522,-0.310324,-1.517381
00590,1814364,-0.581852,0.095653,9.572957,-0.060920,-0.087163,-0.014244,-0.257260,-0.297445,-1.507882
00591,1815364,-0.325409,0.846681,9.793215,-0.003622,-0.026064,-0.026940,-0.235689,-0.309837,-1.563094
00592,1816364,-0.019179,0.856696,8.639680,-0.057977,-0.115110,-0.019088,-0.271402,-0.303219,-1.501023
00593,1817364,0.621735,0.279896,10.198095,-0.118537,0.024720,-0.037365,-0.277495,-0.299613,-1.501324
00594,1818364,0.155317,-0.296274,9.560989,-0.028661,0.112461,-0.006443,-0.270670,-0.295564,-1.496318
00595,1819364,-1.287846,0.276052,8.447904,0.035784,0.001439,-0.031319,-0.283422,-0.302234,-1.478447
00596,1820364,-2.045748,0.363762,10.657468,-0.038302,0.050593,-0.008923,-0.286564,-0.300617,-1.465182
00597,1821364,-0.658018,0.137667,8.272558,-0.065741,-0.033085,0.003054,-0.277246,-0.299151,-1.477747
00598,1822364,0.011069,0.048116,10.010509,-0.042734,-0.079206,0.023479,-0.266835,-0.291828,-1.478005
00599,1823364,0.449830,-0.408715,10.351694,0.014710,-0.088479,-0.027572,-0.267831,-0.301676,-1.497788
00600,1824364,0.761125,0.450376,9.802397,0.037790,0.013538,-0.003786,-0.263769,-0.288885,-1.502170
00601,1825364,0.725435,0.157319,9.768323,0.025751,0.060246,0.038683,-0.264759,-0.298272,-1.499818
00602,1826364,0.223470,-0.068796,10.142458,0.017471,0.100570,0.004198,-0.270890,-0.289776,-1.495002
00603,1827364,-0.050242,-0.670347,8.189675,-0.119625,-0.050138,0.062022,-0.266346,-0.292989,-1.484998
00604,1828364,-1.203530,-1.429605,12.026138,0.122509,0.195008,0.051945,-0.266083,-0.296015,-1.491053
00605,1829364,0.036237,1.204399,8.612935,0.147011,-0.213763,-0.104466,-0.269357,-0.295496,-1.485327
00606,1830364,0.406117,0.141716,11.512336,-0.136642,0.193796,0.047731,-0.252090,-0.296666,-1.486076
00607,1831364,0.392167,-1.315185,10.178477,-0.009112,-0.158481,0.003306,-0.248850,-0.302274,-1.506818
00608,1832364,0.175440,0.337062,9.686481,0.113238,0.131687,-0.021429,-0.257014,-0.305799,-1.494561
00609,1833364,-0.465311,0.809484,10.878563,-0.088945,0.155181,-0.088486,-0.254727,-0.294479,-1.488302
00610,1834364,-2.146987,-0.636765,11.943492,-0.016840,-0.033180,0.085317,-0.268895,-0.292468,-1.474946
00611,1835364,-0.671137,0.643813,8.451941,0.192858,0.126567,-0.035124,-0.250495,-0.289076,-1.479383
00612,1836364,-1.200546,1.971103,10.097919,-0.138457,-0.180802,-0.082134,-0.261781,-0.302825,-1.471614
00613,1837364,-0.882191,-0.802253,10.163972,-0.136265,-0.003356,0.111335,-0.268872,-0.286679,-1.472187
00614,1838364,-0.526419,-0.216218,9.788572,0.104018,-0.020197,-0.028786,-0.262477,-0.289385,-1.472803
00615,1839364,-0.278203,0.906184,9.872472,0.048409,-0.036013,0.000464,-0.271357,-0.298832,-1.473749
00616,1840364,-0.369853,0.071469,10.153111,-0.042559,-0.000070,0.024340,-0.273685,-0.291688,-1.465635
00617,1841364,-0.667255,-0.021256,9.799919,0.004715,0.008518,-0.019974,-0.280656,-0.286155,-1.470304
00618,1842364,-0.864468,0.338172,9.874277,0.009862,0.005151,-0.002712,-0.282267,-0.295477,-1.468499
00619,1843364,-1.246595,0.090329,9.768003,-0.006166,0.025138,-0.023077,-0.276729,-0.290467,-1.470725
00620,1844364,-1.545321,0.106814,9.862447,-0.005701,0.018813,0.000025,-0.273126,-0.305062,-1.462108
00621,1845364,0.126589,-0.097552,9.394651,0.004710,-0.059597,0.019627,-0.271466,-0.301331,-1.456774
00622,1846364,0.198182,0.327087,9.921636,-0.004058,-0.028607,-0.012431,-0.286218,-0.304146,-1.449081
00623,1847364,0.197181,0.132341,9.891016,-0.002834,0.011406,0.014304,-0.256843,-0.305996,-1.503017
00624,1848364,0.092418,0.070412,9.817531,-0.005569,-0.000274,-0.000733,-0.281620,-0.314113,-1.441815
00625,1849364,-0.397588,0.202446,9.800484,-0.002567,0.024275,-0.004247,-0.281163,-0.302732,-1.443312
00626,1850364,-0.348401,0.084107,9.837469,-0.002448,-0.009629,0.005896,-0.277784,-0.303185,-1.445258
00627,1851364,0.037233,0.188418,9.788558,0.004704,-0.009356,0.003786,-0.279444,-0.306916,-1.450593
00628,1852364,0.036204,0.178912,9.803727,-0.004736,0.009274,0.001443,-0.284409,-0.297586,-1.444705
00629,1853364,-0.191857,0.144415,9.797594,-0.002748,0.007851,0.000850,-0.281493,-0.304662,-1.446155
00630,1854364,-0.195234,0.142986,9.796311,-0.003672,-0.001228,0.001781,-0.285904,-0.300352,-1.448619
00631,1855364,-0.048278,0.159167,9.848954,-0.001971,-0.003955,-0.000291,-0.279510,-0.303057,-1.449234
00632,1856364,-0.070696,0.166846,9.781981,-0.001930,0.002155,0.000244,-0.282195,-0.298875,-1.447722
00633,1857364,-0.219644,0.164397,9.792612,0.000546,0.003246,-0.011608,-0.280168,-0.294508,-1.455541
00634,1858364,-0.447926,0.172110,9.760584,-0.002660,0.010931,-0.009744,-0.277712,-0.299392,-1.446238
00635,1859364,-0.074701,0.182110,9.840588,0.000691,-0.020297,-0.058955,-0.269959,-0.286855,-1.441225
00636,1860364,0.335630,0.317670,9.755365,0.000275,-0.009729,-0.078222,-0.282373,-0.300763,-1.493414
00637,1861364,-0.091328,0.857001,9.675056,0.006907,0.013114,-0.292519,-0.253303,-0.295506,-1.483409
00638,1862364,-0.185888,0.250218,9.894659,-0.032109,-0.012292,-0.398263,-0.244451,-0.321890,-1.505111
00639,1863364,0.035654,-0.407487,9.830221,-0.015290,0.008530,-0.403014,-0.265635,-0.320704,-1.480807
00640,1864364,-0.258335,0.264660,9.806108,0.002708,-0.003904,-0.374012,-0.268492,-0.332330,-1.459337
00641,1865364,-0.247134,0.485945,9.711736,-0.013657,-0.003289,-0.351153,-0.256485,-0.348621,-1.482670
00642,1866364,0.002317,0.041908,9.791545,-0.039282,-0.022309,-0.382838,-0.251959,-0.358786,-1.485303
00643,1867364,0.045349,0.036397,9.691717,-0.006187,0.016143,-0.398900,-0.255666,-0.355043,-1.465065
00644,1868364,-0.124341,0.187204,9.696499,-0.026371,-0.012557,-0.406399,-0.259326,-0.369302,-1.437064
00645,1869364,-0.131380,0.214012,9.574810,0.008545,0.007888,-0.382051,-0.239577,-0.383142,-1.435006
00646,1870364,-0.062994,0.087374,9.656626,-0.017078,-0.009821,-0.448899,-0.235289,-0.403285,-1.459215
00647,1871364,0.033371,0.172111,9.896758,-0.009355,-0.010425,-0.450680,-0.236307,-0.424489,-1.427988
00648,1872364,0.026316,-0.059129,9.666420,-0.004207,0.012764,-0.435969,-0.240840,-0.427197,-1.446868
00649,1873364,-0.136126,0.236576,9.606664,-0.021532,-0.007884,-0.462313,-0.237754,-0.445257,-1.424139
00650,1874364,0.008483,-0.146067,10.041587,-0.019827,-0.000176,-0.433904,-0.230118,-0.444496,-1.434541
00651,1875364,-0.012844,-0.182268,9.861838,-0.029261,-0.012150,-0.456555,-0.232969,-0.448470,-1.412693
00652,1876364,-0.153440,-0.053426,9.995484,0.007198,0.004118,-0.459842,-0.222586,-0.461780,-1.394332
00653,1877364,-0.216866,-0.048164,10.112901,-0.036824,0.000224,-0.443895,-0.216116,-0.481457,-1.383426
00654,1878364,-0.174511,0.061640,9.680966,0.006294,-0.011149,-0.438400,-0.192184,-0.487898,-1.368711
00655,1879364,-0.184085,0.229947,10.109944,0.041053,0.012324,-0.458470,-0.192654,-0.510989,-1.378849
00656,1880364,-0.073049,-0.364661,10.071112,-0.027120,-0.008966,-0.435546,-0.170102,-0.517235,-1.362887
00657,1881364,0.107515,-0.119286,9.509489,-0.018343,0.011124,-0.448467,-0.171681,-0.531909,-1.388335
00658,1882364,-0.000720,0.007443,9.709096,-0.002748,0.000841,-0.459834,-0.159379,-0.534535,-1.350560
00659,1883364,-0.015504,-0.043900,9.960769,-0.008217,0.011799,-0.439861,-0.156787,-0.544705,-1.364730
00660,1884364,-0.029585,0.297066,9.600533,0.012160,0.014513,-0.458452,-0.142337,-0.544761,-1.328614
00661,1885364,-0.096742,0.146682,9.829330,-0.002891,0.006279,-0.466131,-0.125450,-0.554682,-1.338722
00662,1886364,-0.019380,0.002959,9.803797,-0.017372,-0.007106,-0.499490,-0.117868,-0.561550,-1.302874
00663,1887364,0.057529,0.101702,9.822772,0.007736,-0.002649,-0.448647,-0.091229,-0.571604,-1.308046
00664,1888364,-0.109385,-0.062795,10.076958,0.006192,-0.015143,-0.464735,-0.081737,-0.589476,-1.284554
00665,1889364,-0.110520,-0.320720,10.038624,-0.032818,-0.041607,-0.466259,-0.057475,-0.583200,-1.299631
00666,1890364,-0.008011,0.420961,9.915562,0.027636,0.016444,-0.429095,-0.052907,-0.606609,-1.295502
00667,1891364,-0.000292,-0.027967,9.800053,0.001942,-0.007276,-0.440791,-0.011673,-0.605537,-1.277397
00668,1892364,-0.058618,0.136380,9.734596,-0.027306,-0.025696,-0.478825,-0.029886,-0.607394,-1.289915
00669,1893364,0.161751,-0.277907,10.083188,0.014541,0.006966,-0.435489,-0.013974,-0.597362,-1.265524
00670,1894364,-0.005763,0.034421,9.617402,-0.015843,-0.010897,-0.470157,-0.004986,-0.601422,-1.270053
00671,1895364,-0.041007,0.194561,9.641454,0.006241,0.001209,-0.429261,0.016150,-0.602584,-1.247728
00672,1896364,0.095576,-0.438969,10.199761,-0.001913,0.008645,-0.433941,0.032323,-0.613208,-1.249905
00673,1897364,0.061973,0.237175,9.735410,0.008672,-0.021420,-0.463401,0.053173,-0.617133,-1.224283
00674,1898364,0.058069,0.191581,9.768416,-0.004162,-0.000580,-0.448313,0.074911,-0.626935,-1.246061
00675,1899364,0.102076,-0.107988,9.411137,-0.014330,-0.013489,-0.449397,0.085256,-0.631759,-1.233460
00676,1900364,0.099939,0.153094,9.574601,0.006615,-0.002761,-0.439152,0.074724,-0.617682,-1.261741
00677,1901364,0.136705,0.337069,9.702168,0.011411,-0.013617,-0.425290,0.100409,-0.626816,-1.228412
00678,1902364,0.005860,-0.420725,9.660831,-0.007612,-0.026046,-0.371544,0.083255,-0.614678,-1.159479
00679,1903364,0.312830,-0.365483,9.785029,0.003209,-0.007689,-0.160441,0.131831,-0.621290,-1.191749
00680,1904364,0.173946,-0.764227,9.973102,0.013091,0.008369,0.092796,0.111751,-0.616572,-1.174893
00681,1905364,-0.104989,0.645298,9.297570,-0.021382,0.005230,-0.036103,0.096191,-0.622481,-1.182804
00682,1906364,0.025425,-0.096022,9.915452,0.019965,-0.004034,0.079531,0.102262,-0.623060,-1.175006
00683,1907364,0.169247,-0.451171,9.715950,-0.010866,0.000779,-0.032447,0.103333,-0.628211,-1.186592
00684,1908365,0.136706,0.149366,9.860014,0.000676,-0.001958,-0.010529,0.103361,-0.627180,-1.182832
00685,1909365,-0.030005,-0.004974,9.773302,-0.002638,-0.003445,0.020365,0.104949,-0.623647,-1.187397
00686,1910365,0.015314,-0.128276,9.824157,-0.002219,-0.000359,0.002872,0.102526,-0.622490,-1.191940
00687,1911365,0.102002,-0.078785,9.821437,-0.002445,-0.003171,-0.002760,0.108992,-0.621403,-1.193535
00688,1912365,0.086979,-0.028176,9.796309,0.003146,-0.001119,0.000677,0.108899,-0.618574,-1.195936
00689,1913365,0.053424,-0.076620,9.806345,-0.005494,0.000184,0.005097,0.102884,-0.619529,-1.185338
00690,1914365,0.491233,-0.072065,9.907393,-0.008820,-0.014046,-0.029531,0.106922,-0.612526,-1.192478
00691,1915365,1.424965,-0.068460,9.841124,-0.006679,-0.082637,-0.009829,0.101998,-0.618063,-1.211841
00692,1916365,1.841541,0.005477,9.873256,0.002024,-0.008547,-0.003178,0.121964,-0.604515,-1.224223
00693,1917365,1.268827,-0.030900,9.985649,-0.003532,0.011059,-0.012521,0.121040,-0.617761,-1.223230
00694,1918365,0.814286,-0.151759,10.065017,-0.020708,0.043706,0.015899,0.128913,-0.615837,-1.222312
00695,1919365,0.201232,-0.127435,9.730150,-0.023571,0.016420,-0.001986,0.125095,-0.616218,-1.217112
00696,1920365,-0.079438,0.121941,10.127417,0.021221,0.013145,0.005379,0.118266,-0.619104,-1.212240
00697,1921365,-0.353442,0.038487,9.718370,0.002954,-0.000440,0.033358,0.110048,-0.615875,-1.197245
00698,1922365,-1.110786,-0.129580,10.208445,0.001333,0.041466,-0.046527,0.114800,-0.611765,-1.201438
00699,1923365,-1.185212,-0.109208,9.498846,0.017103,0.005392,0.003780,0.111498,-0.615871,-1.188592
00700,1924365,-0.284597,-0.140131,10.367310,-0.035089,-0.066166,0.053836,0.117079,-0.616913,-1.205813
00701,1925365,0.591808,-0.302719,9.726227,0.002851,-0.041775,-0.050867,0.124727,-0.609663,-1.225714
00702,1926365,1.078362,0.087194,9.812275,0.019412,-0.063720,0.024847,0.112574,-0.618590,-1.220934
00703,1927365,0.468020,-0.211643,10.042198,-0.006172,0.089873,0.008910,0.119772,-0.609848,-1.217825
00704,1928365,-0.271198,0.135539,9.706500,-0.004603,0.033569,0.020827,0.114053,-0.608740,-1.198266
00705,1929365,-0.567001,-0.213757,10.070840,-0.010157,0.002549,0.001783,0.113268,-0.609641,-1.200234
00706,1930365,-0.633559,0.018659,9.902549,-0.004204,0.000355,-0.015111,0.110147,-0.611050,-1.194466
00707,1931365,-0.386115,-0.266421,10.004321,-0.021721,-0.006728,0.032087,0.105978,-0.606739,-1.195487
00708,1932365,-0.144546,-0.023498,9.942441,0.007083,-0.010832,0.001555,0.081863,-0.608215,-1.224260
00709,1933365,0.339156,-0.042014,9.927632,0.003905,-0.027041,-0.020358,0.113526,-0.607908,-1.207290
00710,1934365,0.772979,-0.016796,9.635841,-0.017169,-0.018902,0.001400,0.094360,-0.603626,-1.160171
00711,1935365,0.555788,-0.320851,9.889497,0.001589,0.025950,0.019012,0.116075,-0.612025,-1.206464
00712,1936365,0.017610,-0.012212,10.018064,0.021700,0.012722,-0.000562,0.112389,-0.607713,-1.204602
00713,1937365,-0.086203,-0.020857,9.573336,-0.015862,0.017538,0.012159,0.114960,-0.606041,-1.201017
00714,1938365,0.076728,-0.044639,9.496758,0.010691,-0.016259,-0.007144,0.119547,-0.615308,-1.206009
00715,1939365,0.289849,0.208013,9.853439,-0.010198,-0.000307,-0.008278,0.109905,-0.607455,-1.206786
00716,1940365,0.564202,-0.395027,9.912436,-0.019750,0.008545,0.018402,0.108685,-0.613948,-1.204498
00717,1941365,0.246834,0.005396,9.864527,-0.000314,0.010660,-0.025167,0.103251,-0.615297,-1.209370
00718,1942365,-0.073184,-0.030036,9.574956,-0.021826,0.022402,0.016262,0.113119,-0.608874,-1.210153
00719,1943365,0.066736,-0.044570,9.503123,0.009566,-0.023170,-0.008261,0.131402,-0.613662,-1.240884
00720,1944365,0.426386,0.068444,9.585731,-0.018789,-0.009955,-0.014047,0.114595,-0.629066,-1.207375
00721,1945365,0.228831,-0.043340,9.720464,-0.006425,-0.008753,0.011200,0.126018,-0.615382,-1.217482
00722,1946365,-0.113392,0.058798,9.697487,-0.023399,0.007840,-0.003657,0.106883,-0.612856,-1.208495
00723,1947365,0.067653,-0.024196,9.628956,-0.001906,-0.045121,-0.011951,0.115733,-0.613255,-1.221564
00724,1948365,0.264765,0.151020,9.407907,-0.027429,-0.007296,-0.010340,0.109004,-0.611317,-1.213913
00725,1949365,0.523916,0.054682,9.486080,-0.017072,-0.037867,-0.009523,0.122468,-0.619951,-1.228214
00726,1950365,0.491419,-0.276487,9.810754,-0.016905,0.006492,0.025172,0.111239,-0.615632,-1.224427
00727,1951365,0.574262,-0.020240,10.145947,0.026708,-0.036848,-0.043993,0.119881,-0.610944,-1.223922
00728,1952365,0.489298,-0.081187,9.489989,0.002367,0.019028,0.050228,0.118870,-0.613709,-1.224952
00729,1953365,0.119888,-0.319615,9.935838,-0.023857,0.004896,-0.017147,0.114635,-0.609134,-1.213737
00730,1954365,0.009092,0.247306,10.242206,0.029541,-0.015710,-0.020593,0.112678,-0.618524,-1.217154
00731,1955365,-0.000461,-0.171153,9.759015,-0.012374,0.007359,0.045205,0.118486,-0.612482,-1.214178
00732,1956365,0.219383,-0.240275,9.885599,-0.024700,-0.013271,-0.033009,0.116733,-0.613384,-1.221914
00733,1957365,0.468004,0.073663,10.370069,-0.010939,-0.018157,-0.031535,0.124244,-0.609664,-1.228599
00734,1958365,0.522859,-0.140741,9.569715,-0.005507,0.018951,0.046810,0.122661,-0.614359,-1.233912
00735,1959365,0.486582,-0.556918,9.559417,0.019950,0.055023,0.036030,0.121475,-0.612169,-1.227486
00736,1960365,0.228952,-0.013877,10.168394,-0.004566,0.057314,-0.034830,0.119195,-0.607020,-1.223110
00737,1961365,-0.092897,0.190440,10.113764,0.035036,0.029572,0.049927,0.121442,-0.615633,-1.210489
00738,1962365,-0.032574,-0.230486,9.872070,0.025649,-0.000945,0.050177,0.114833,-0.608301,-1.218434
00739,1963365,-0.132232,-0.100910,10.238151,0.014884,0.001656,0.040967,0.111848,-0.622187,-1.214382
00740,1964365,-0.120495,-0.114949,9.367448,0.011531,-0.010610,0.029797,0.108976,-0.615943,-1.206794
00741,1965365,0.202848,0.352315,10.040413,-0.016303,-0.007790,0.077798,0.111778,-0.617165,-1.203146
00742,1966365,0.208267,0.258609,10.307663,0.002124,-0.010465,0.112594,0.121584,-0.616861,-1.222705
00743,1967365,-0.166498,-0.052582,9.763051,-0.007343,-0.004137,0.119054,0.112112,-0.621617,-1.231316
00744,1968365,-0.115977,-0.301438,9.634582,-0.025672,-0.036670,0.141116,0.097246,-0.618577,-1.218527
00745,1969365,0.252801,0.069123,9.012744,-0.026026,-0.012611,0.044420,0.097422,-0.614717,-1.215727
00746,1970365,0.346789,0.129664,10.464722,0.036237,-0.034559,0.034408,0.093939,-0.610734,-1.228439
00747,1971365,0.369678,-0.209607,10.081187,0.023397,-0.022982,0.084817,0.090521,-0.617801,-1.220753
00748,1972365,0.351609,-0.075606,9.077220,0.005595,0.003753,-0.014897,0.094993,-0.617617,-1.231527
00749,1973365,0.073123,0.466152,10.042873,0.011215,0.022658,-0.002915,0.082450,-0.620559,-1.216974
00750,1974365,0.105478,-0.046405,9.516554,0.031347,0.003657,0.057844,0.082324,-0.617599,-1.213256
00751,1975365,0.274212,0.061893,10.411019,-0.016285,-0.011203,0.008031,0.092217,-0.624180,-1.241671
00752,1976365,0.208078,-0.061546,9.700988,0.005466,-0.005318,-0.000909,0.076657,-0.640875,-1.216947
00753,1977365,0.367624,0.392041,9.790286,0.000208,0.009281,-0.004731,0.079900,-0.628853,-1.217177
00754,1978365,0.363328,0.197661,10.323431,-0.018394,0.044159,0.041976,0.085115,-0.618120,-1.221867
00755,1979365,0.338995,-0.036189,9.941666,-0.015809,-0.006366,0.039519,0.082962,-0.615931,-1.221209
00756,1980365,0.505582,0.037765,10.088688,0.001948,-0.013842,0.001840,0.083269,-0.616194,-1.232003
00757,1981365,0.168516,0.077822,10.368851,-0.021833,-0.004615,0.008602,0.076462,-0.613292,-1.224373
00758,1982365,-0.020355,0.066869,9.824400,-0.022635,-0.004135,-0.002308,0.063295,-0.642614,-1.241134
00759,1983365,0.095396,-0.253397,9.900609,-0.009529,-0.010772,0.036540,0.091965,-0.618260,-1.234236
00760,1984365,0.320158,-0.191051,9.988305,0.029837,0.007943,0.014795,0.078137,-0.620239,-1.226915
00761,1985365,0.438854,0.079712,9.571053,0.004498,0.023260,0.024974,0.087181,-0.602636,-1.246304
00762,1986365,0.464943,0.010288,9.846273,-0.015013,0.013439,-0.000282,0.079416,-0.625258,-1.230940
00763,1987365,0.256341,-0.115990,9.900874,-0.006577,0.030082,0.005572,0.106617,-0.631056,-1.212073
00764,1988365,0.083158,-0.065250,9.681733,-0.000820,0.035591,-0.004032,0.078560,-0.624733,-1.210793
00765,1989365,-0.125643,-0.052174,9.742517,-0.015034,0.008643,0.002008,0.082318,-0.625251,-1.213635
00766,1990365,-0.137641,0.015931,9.526274,-0.030859,0.011080,0.001148,0.084550,-0.615993,-1.214894
00767,1991365,0.153484,0.005776,10.101824,-0.025973,0.010771,0.013130,0.086735,-0.621909,-1.210792
00768,1992365,0.123226,-0.022412,9.807984,0.005095,-0.022860,0.019943,0.087873,-0.622104,-1.213480
00769,1993365,0.141226,-0.084651,9.498601,0.025866,-0.004630,0.018408,0.078242,-0.623769,-1.212256
00770,1994365,0.401269,0.102748,10.111591,0.003526,-0.025129,-0.019453,0.094558,-0.619614,-1.238149
00771,1995365,0.372403,0.097488,9.733529,-0.002503,-0.030936,0.013102,0.081373,-0.619465,-1.216645
00772,1996365,0.180395,0.197637,10.102695,0.012521,0.001361,-0.012001,0.073869,-0.615533,-1.209581
00773,1997365,-0.037237,0.090249,10.246213,-0.039734,0.009122,-0.001939,0.078362,-0.621970,-1.216974
00774,1998365,0.343640,-0.114463,9.618425,-0.036885,-0.016084,-0.007670,0.083373,-0.616128,-1.228223
00775,1999365,0.310604,-0.288246,9.606786,-0.016364,0.008851,0.013641,0.082522,-0.616765,-1.217953
00776,2000365,0.184402,-0.191144,9.626679,-0.025094,0.035486,-0.009452,0.087538,-0.619277,-1.217324
00777,2001365,0.316753,-0.229218,9.655565,-0.015710,0.003224,0.005759,0.095476,-0.617616,-1.228642
00778,2002365,0.449244,-0.269932,9.934931,0.006381,-0.020450,-0.012510,0.100646,-0.622057,-1.227971
00779,2003365,0.250451,0.056591,10.059899,0.016693,0.032548,0.000145,0.101453,-0.627778,-1.222623
00780,2004365,0.316163,0.080712,9.927421,-0.003739,0.003935,-0.005801,0.102827,-0.623214,-1.224869
00781,2005365,-0.008535,0.090143,9.779432,-0.014763,0.008828,0.007331,0.098569,-0.620833,-1.227292
00782,2006365,-0.088079,0.516297,10.112682,0.013321,-0.043415,-0.006551,0.091998,-0.629178,-1.207719
00783,2007365,-0.043765,0.437329,9.359680,0.011026,0.010676,0.018219,0.084192,-0.626146,-1.199739
00784,2008365,0.139034,0.056487,9.470963,0.026437,0.006544,0.001489,0.084214,-0.616761,-1.207859
00785,2009365,0.152689,-0.107699,9.525801,0.039949,-0.026383,0.008085,0.086775,-0.617984,-1.205654
00786,2010365,0.253002,-0.116493,10.151421,0.004853,0.015233,0.008927,0.087828,-0.624867,-1.208741
00787,2011365,0.131698,-0.084055,10.385179,0.010527,-0.007179,-0.000232,0.092256,-0.627446,-1.214776
00788,2012365,0.009122,0.329518,10.310734,-0.013906,0.040936,-0.003380,0.088740,-0.626926,-1.210491
00789,2013365,0.013976,0.462170,10.135252,-0.047240,-0.019811,-0.017841,0.092151,-0.627512,-1.218556
00790,2014365,-0.159973,0.125586,9.752543,-0.016002,-0.064909,-0.009404,0.086636,-0.626734,-1.213572
00791,2015365,0.312553,-0.224272,9.645280,0.025053,-0.006329,-0.000344,0.077823,-0.627629,-1.216498
00792,2016365,0.607254,-0.060456,9.490863,0.014248,-0.038275,-0.001508,0.093844,-0.623912,-1.219340
00793,2017365,0.180630,0.284653,9.463442,-0.017934,-0.002222,-0.001425,0.080507,-0.605827,-1.209378
00794,2018365,-0.117484,0.386743,9.499839,-0.010942,-0.056340,0.005753,0.079049,-0.625894,-1.217786
00795,2019365,0.134109,-0.023381,10.118196,0.004946,-0.007458,-0.007284,0.097811,-0.627894,-1.203743
00796,2020365,0.842872,0.264489,10.216683,-0.008145,0.017161,-0.036274,0.086471,-0.624103,-1.225871
00797,2021365,0.750602,0.118082,9.805716,-0.032286,0.077615,0.026705,0.088521,-0.617542,-1.220053
00798,2022365,-0.209898,-0.314390,9.572156,-0.018500,0.048431,0.004824,0.082345,-0.620625,-1.220754
00799,2023365,-0.328286,0.359933,9.959110,-0.001408,-0.008242,-0.024037,0.084401,-0.618822,-1.213935
00800,2024365,-0.165025,0.340711,9.287125,-0.007115,-0.000584,0.021536,0.077632,-0.620810,-1.211423
00801,2025365,0.518694,-0.091132,10.008991,-0.001404,-0.008944,-0.020683,0.097953,-0.621931,-1.237715
00802,2026365,0.869904,0.131509,9.945629,0.009271,-0.010164,-0.013447,0.111177,-0.621751,-1.243203
00803,2027365,0.177719,-0.063477,10.040289,-0.047855,0.031266,0.001822,0.088856,-0.620370,-1.216210
00804,2028365,-0.152681,-0.317202,10.143506,-0.022136,0.049473,0.008339,0.074412,-0.619852,-1.230191
00805,2029365,-0.037472,0.022279,10.078022,0.007113,0.033710,-0.020178,0.094053,-0.623780,-1.211779
00806,2030365,-0.024117,0.282280,9.149408,0.000692,-0.001511,0.000077,0.090093,-0.622932,-1.194362
00807,2031365,0.162448,-0.112321,10.162614,-0.000006,-0.004309,0.003427,0.097118,-0.624432,-1.225065
00808,2032365,0.479664,0.042284,10.269620,0.000206,0.021728,-0.005509,0.106019,-0.621607,-1.220739
00809,2033365,0.239568,-0.303724,9.725640,-0.011608,0.013200,0.010548,0.095164,-0.612595,-1.218849
00810,2034365,-0.097077,-0.261735,10.017244,-0.024642,0.063693,-0.006540,0.099931,-0.622760,-1.220039
00811,2035365,-0.323764,0.010979,9.189479,-0.007546,-0.049169,-0.006682,0.095510,-0.612528,-1.213626
00812,2036365,-0.183698,0.262382,9.544186,0.000168,-0.008243,-0.003408,0.092532,-0.615166,-1.220074
00813,2037365,0.489357,0.132806,10.157233,0.008463,-0.032118,-0.005537,0.108145,-0.621231,-1.236034
00814,2038365,0.510503,0.009058,9.797485,-0.008294,-0.031182,-0.008607,0.103915,-0.617819,-1.234697
00815,2039365,0.110937,-0.182252,9.797626,-0.027351,-0.025503,0.008350,0.098321,-0.628486,-1.229112
00816,2040365,0.088228,-0.058742,9.803505,-0.012474,-0.014137,-0.001937,0.092098,-0.620758,-1.215818
00817,2041365,0.123675,0.178324,9.879046,-0.006516,0.009084,-0.014789,0.098608,-0.616908,-1.222153
00818,2042365,0.196327,0.112320,9.932338,-0.018175,-0.037965,0.000986,0.099289,-0.616074,-1.223966
00819,2043365,0.606149,-0.308834,9.859150,0.035634,0.039790,0.004365,0.093004,-0.614464,-1.229447
00820,2044365,0.342648,-0.205667,10.135079,0.022004,0.070099,-0.008479,0.101866,-0.615564,-1.230259
00821,2045365,0.051838,0.020444,10.152108,0.007925,0.053277,-0.011703,0.098417,-0.610089,-1.217077
00822,2046365,-0.160606,0.087736,9.697974,-0.016978,0.037742,0.010181,0.094269,-0.612399,-1.214718
00823,2047365,-0.379232,-0.330535,10.206776,-0.023137,-0.025214,0.003218,0.104449,-0.614593,-1.214417
00824,2048365,0.101553,-0.295079,9.808049,-0.019079,-0.002040,-0.011328,0.107091,-0.614347,-1.232947
00825,2049365,0.203427,-0.493808,9.796159,0.010938,-0.089097,0.002977,0.109854,-0.619495,-1.234438
00826,2050365,0.350433,-0.035699,10.284212,0.002868,-0.024247,-0.015895,0.110293,-0.622257,-1.226815
00827,2051365,0.253271,0.145633,9.846716,-0.002657,0.005852,-0.000556,0.098255,-0.624627,-1.227754
00828,2052365,0.080952,0.153764,10.116131,-0.028938,-0.025851,-0.001957,0.104557,-0.624505,-1.230771
00829,2053365,0.115513,-0.091168,10.007386,0.002065,0.015261,0.001793,0.096246,-0.618448,-1.218177
00830,2054365,0.255261,0.017256,9.638834,-0.001246,-0.037032,-0.000684,0.102234,-0.618524,-1.232534
00831,2055365,0.573889,-0.311941,9.933533,0.026695,0.028417,-0.007589,0.109184,-0.613839,-1.242124
00832,2056365,0.507294,0.163690,10.338243,0.000460,0.043511,-0.022043,0.107030,-0.615247,-1.230588
00833,2057365,-0.153686,0.183843,9.837629,-0.079460,0.030962,-0.006840,0.104339,-0.609901,-1.219198
00834,2058365,-0.174823,-0.043958,9.493933,-0.037026,0.022686,0.006396,0.113101,-0.612230,-1.233668
00835,2059365,0.026033,-0.428503,9.535349,0.034312,-0.016424,0.011561,0.108652,-0.606625,-1.220136
00836,2060365,0.280271,0.092821,9.581104,-0.003247,-0.014491,-0.015637,0.097855,-0.614345,-1.241117
00837,2061365,0.391177,-0.272241,10.222049,-0.025393,-0.036134,-0.014652,0.113843,-0.610497,-1.237840
00838,2062365,0.203906,0.055598,10.247561,0.016486,-0.000459,-0.010793,0.109502,-0.621994,-1.218905
00839,2063365,-0.035363,-0.137655,10.553667,-0.010607,0.000025,0.013063,0.107953,-0.618007,-1.220080
00840,2064365,0.096127,-0.277947,9.548084,0.008925,-0.056469,-0.010781,0.109981,-0.617235,-1.217021
00841,2065365,0.169672,-0.203070,9.600256,-0.022514,-0.031993,-0.015767,0.108388,-0.612415,-1.224336
00842,2066365,0.530712,0.162109,10.085302,-0.021802,-0.019678,-0.006886,0.104625,-0.603543,-1.233373
00843,2067365,0.488702,-0.365533,9.921375,0.016510,0.039215,0.014662,0.116864,-0.617507,-1.235509
00844,2068365,0.443051,0.079350,9.560556,0.005097,0.060741,-0.022846,0.104235,-0.609967,-1.222978
00845,2069365,-0.139108,-0.024405,10.175506,-0.015433,0.089645,-0.010912,0.110646,-0.614537,-1.221214
00846,2070365,-0.025854,-0.144220,9.022099,0.024212,0.036045,0.018356,0.119391,-0.618598,-1.227185
00847,2071365,-0.158008,-0.061774,9.888998,-0.000666,0.021652,-0.018679,0.118771,-0.618533,-1.227732
00848,2072365,0.301938,0.126626,9.933013,-0.020270,-0.016598,-0.006500,0.130294,-0.642016,-1.232192
00849,2073365,0.263164,-0.292960,9.316583,-0.023863,0.019281,-0.024146,0.115882,-0.610426,-1.222523
00850,2074365,0.004213,-0.215319,9.522592,0.018895,0.015198,0.005386,0.119931,-0.616535,-1.216783
00851,2075365,-0.308014,-0.128187,10.417485,0.002279,-0.061262,-0.001465,0.113794,-0.615692,-1.212345
00852,2076365,0.024770,-0.114447,9.584960,-0.041071,-0.045682,-0.001535,0.112080,-0.612670,-1.214942
00853,2077365,0.538366,-0.250132,9.583722,-0.010392,-0.005160,-0.020479,0.122391,-0.618986,-1.228235
00854,2078365,0.390469,-0.301337,10.257040,0.029985,0.036608,0.005399,0.117289,-0.609590,-1.220010
00855,2079365,0.015128,0.151378,9.530148,0.044277,0.029487,-0.002445,0.109312,-0.606360,-1.203573
00856,2080365,-0.274633,0.072144,9.815088,-0.029065,0.020318,-0.004488,0.117470,-0.610488,-1.216208
00857,2081365,0.194407,-0.485965,9.357717,-0.014992,-0.008462,0.005891,0.124732,-0.614421,-1.224714
00858,2082365,0.152813,-0.105115,10.018862,0.047716,-0.001359,-0.003082,0.117459,-0.613383,-1.217587
00859,2083365,-0.124679,-0.274512,10.449500,-0.018010,-0.023092,-0.010173,0.116673,-0.614283,-1.219555
00860,2084365,0.093264,-0.288533,9.785565,0.016486,-0.013956,-0.014916,0.122402,-0.619688,-1.215978
00861,2085365,0.563242,0.355139,9.495876,0.013567,-0.009812,-0.018960,0.127572,-0.624128,-1.215306
00862,2086365,-0.607916,-0.160523,9.831918,-0.024624,0.016212,0.008663,0.125435,-0.623804,-1.212268
00863,2087365,0.050470,0.246683,9.601681,0.037401,-0.070219,0.005851,0.112683,-0.626877,-1.205275
00864,2088365,0.854356,0.065209,9.612478,0.015273,0.007681,0.003784,0.115338,-0.614922,-1.212169
00865,2089365,0.233385,-0.355044,9.456078,0.010008,0.011397,0.022424,0.121288,-0.613703,-1.210531
00866,2090365,-0.218935,0.079958,9.719557,0.016315,0.049863,0.001838,0.111860,-0.619292,-1.213003
00867,2091365,0.120763,-0.036656,9.732558,0.035324,-0.003262,0.040027,0.112974,-0.628872,-1.207572
00868,2092365,-0.033060,0.116564,9.658484,-0.018707,0.008572,0.003671,0.107948,-0.620440,-1.199324
00869,2093365,-0.036790,0.126608,9.939106,-0.021958,-0.002167,0.049389,0.119508,-0.622828,-1.200269
00870,2094365,0.040038,-0.055812,9.713690,-0.017390,-0.052625,0.048902,0.118567,-0.630615,-1.212535
00871,2095365,0.582199,0.181574,9.456156,-0.005235,-0.002882,0.017046,0.111909,-0.624883,-1.205863
00872,2096365,0.129961,0.056673,10.378863,0.012750,0.010470,0.060616,0.112490,-0.628873,-1.210456
00873,2097365,0.026134,-0.419629,9.920484,0.028447,-0.003868,0.042393,0.106975,-0.631691,-1.194593
00874,2098366,0.142862,-0.050285,9.539684,0.010001,0.020521,0.075071,0.093927,-0.624415,-1.197183
00875,2099366,0.452431,0.170939,9.589651,-0.086354,0.032818,0.072690,0.109716,-0.626620,-1.210344
00876,2100366,0.161992,-0.226991,9.035984,0.004681,0.030192,0.124642,0.107579,-0.622700,-1.218184
00877,2101366,-0.310610,-0.447924,10.477946,-0.007951,0.020895,0.105641,0.104838,-0.624175,-1.213312
00878,2102366,-0.211158,0.076902,9.569316,-0.015843,0.041980,0.063131,0.097092,-0.620243,-1.207691
00879,2103366,0.140298,0.201674,8.670633,0.009928,-0.006339,0.082906,0.099899,-0.622628,-1.213921
00880,2104366,0.206837,0.043758,9.687231,-0.028823,-0.007974,0.063010,0.105412,-0.648228,-1.217660
00881,2105366,-0.063187,-0.244576,10.515233,-0.015858,-0.033219,0.033688,0.090202,-0.620433,-1.211338
00882,2106366,-0.058077,-0.296587,8.788486,0.028252,0.009576,0.035783,0.093965,-0.625710,-1.213180
00883,2107366,0.217123,0.139865,9.584752,0.006606,0.032201,0.011257,0.089108,-0.629886,-1.212767
00884,2108366,-0.183212,0.167115,9.425034,0.010627,0.014401,0.042640,0.083548,-0.628275,-1.213922
00885,2109366,0.024808,-0.000761,9.678459,0.015924,-0.007404,0.023804,0.081490,-0.616504,-1.211485
00886,2110366,-0.038825,-0.091163,9.680769,-0.000630,0.034002,-0.006002,0.081424,-0.612645,-1.210127
00887,2111366,0.273951,0.650508,9.898330,0.025872,-0.113030,-0.014551,0.075593,-0.624476,-1.215861
00888,2112366,0.194900,-0.112396,10.803337,-0.004035,0.137150,0.079998,0.078302,-0.622869,-1.214615
00889,2113366,0.096169,-0.617239,9.242192,-0.017665,-0.124814,-0.025700,0.083502,-0.597862,-1.222306
00890,2114366,0.027014,0.547836,10.806532,-0.030030,0.012659,0.024334,0.072649,-0.618430,-1.218171
00891,2115366,0.138192,-0.393609,9.082758,0.019381,-0.019918,0.043105,0.089075,-0.626159,-1.217527
00892,2116366,0.294567,-0.395880,9.773243,0.043673,-0.043185,0.004860,0.070275,-0.622864,-1.215575
00893,2117366,0.682397,0.483734,8.642268,-0.018322,0.028572,-0.025974,0.082571,-0.618761,-1.221692
00894,2118366,-0.049648,-0.038854,10.546015,-0.015306,0.001078,0.049735,0.071066,-0.626722,-1.212606
00895,2119366,0.049500,-0.555451,10.137670,-0.003065,-0.029071,0.012419,0.064330,-0.628840,-1.216212
00896,2120366,-0.092833,-0.065872,9.085847,-0.015706,-0.015061,0.009420,0.058695,-0.617450,-1.207132
00897,2121366,0.440355,0.285438,9.564179,0.018729,0.049818,-0.007281,0.069079,-0.611157,-1.211149
00898,2122366,0.236480,-0.283455,9.262593,0.035676,-0.030264,0.024051,0.068298,-0.616816,-1.212116
00899,2123366,-0.122513,0.321688,10.093575,0.018621,0.009618,-0.012049,0.059737,-0.630823,-1.200721
00900,2124366,0.088486,0.400232,9.431775,-0.063917,-0.040492,-0.016510,0.057337,-0.623877,-1.202506
00901,2125366,-0.000443,-0.552079,9.661428,-0.040337,-0.018746,0.027400,0.065852,-0.625044,-1.208539
00902,2126366,0.446857,-0.163157,9.615567,0.011336,-0.044088,-0.005794,0.065231,-0.633794,-1.219342
00903,2127366,0.251373,0.009523,9.811216,-0.009099,0.009396,0.007572,0.058551,-0.625036,-1.205173
00904,2128366,0.136111,0.085200,9.975310,0.033104,0.009698,0.005458,0.057903,-0.626003,-1.209478
00905,2129366,0.174779,0.006361,8.480756,0.005613,0.038529,0.009587,0.050827,-0.627727,-1.196171
00906,2130366,0.389316,0.026356,9.200050,-0.040673,0.022648,-0.016601,0.063848,-0.620026,-1.208840
00907,2131366,0.078566,-0.173471,9.196611,-0.024734,0.034847,0.006273,0.062518,-0.621827,-1.211333
00908,2132366,0.153226,0.105626,10.460893,-0.002857,0.035506,-0.025226,0.070409,-0.609356,-1.208657
00909,2133366,-0.236256,-0.033666,8.770423,-0.001566,-0.007334,0.015170,0.058343,-0.616354,-1.202477
00910,2134366,-0.083286,-0.410027,10.655210,0.001075,0.022506,0.002719,0.074364,-0.616233,-1.194440
00911,2135366,-0.071148,0.506628,9.650940,-0.042841,-0.061847,-0.014223,0.065803,-0.623048,-1.204801
00912,2136366,0.195197,-0.121791,9.827561,-0.022374,0.005550,0.010724,0.074347,-0.619589,-1.217954
00913,2137366,0.370772,-0.356488,9.996600,0.020499,-0.024758,0.017647,0.072875,-0.616566,-1.219109
00914,2138366,0.323450,0.117817,9.476917,-0.013049,0.045579,-0.017114,0.070451,-0.619004,-1.212774
00915,2139366,0.129850,-0.080703,9.891740,-0.008568,0.048850,0.002765,0.077441,-0.613991,-1.206347
00916,2140366,-0.216623,0.295125,9.910554,-0.024228,0.000257,-0.017609,0.065903,-0.621819,-1.191144
00917,2141366,-0.208173,-0.457925,9.282949,0.001995,-0.001271,0.013462,0.074453,-0.614303,-1.193040
00918,2142366,0.207166,-0.184332,10.198997,0.032309,-0.030999,-0.000520,0.069754,-0.621571,-1.202463
00919,2143366,0.188192,0.390994,9.931582,-0.027071,-0.017965,-0.032948,0.079287,-0.612320,-1.207089
00920,2144366,0.461190,0.113704,9.874444,-0.033981,-0.025615,0.015339,0.073990,-0.613735,-1.214300
00921,2145366,0.070711,-0.281058,9.678477,0.002330,0.092528,-0.025710,0.074245,-0.598429,-1.212100
00922,2146366,-0.148608,0.373598,9.763366,-0.074196,-0.083485,-0.013676,0.078737,-0.617277,-1.218871
00923,2147366,0.573486,-0.335251,8.707045,-0.017710,0.009777,0.037695,0.085110,-0.616957,-1.211989
00924,2148366,0.903283,-0.332874,10.394439,0.088131,0.012948,-0.044364,0.094679,-0.621412,-1.231989
00925,2149366,0.247393,0.818328,9.420588,-0.026135,0.031786,-0.037207,0.075709,-0.625111,-1.199823
00926,2150366,0.191776,-0.565385,9.622010,-0.040075,0.037479,0.025786,0.072930,-0.621695,-1.189834
00927,2151366,-0.667435,-0.539249,10.238336,0.108609,-0.010687,-0.004791,0.067777,-0.619118,-1.188126
00928,2152366,0.553011,0.373299,9.124907,0.037654,0.065370,0.012845,0.088077,-0.617214,-1.206921
00929,2153366,0.191991,-0.045059,9.864113,-0.025226,-0.151685,0.040904,0.071677,-0.624461,-1.192305
00930,2154366,0.023396,0.048446,11.383227,0.041778,0.125227,-0.047822,0.066381,-0.617060,-1.189260
00931,2155366,0.176658,0.241048,10.476390,-0.023195,-0.050293,0.012990,0.066859,-0.624712,-1.186754
00932,2156366,-0.456007,-0.469154,10.627043,-0.008616,0.002197,0.017946,0.063266,-0.619632,-1.193369
00933,2157366,-0.395066,0.032251,9.849687,0.012930,-0.044309,-0.015484,0.067338,-0.619952,-1.184871
00934,2158366,0.286642,0.208438,9.312877,-0.015397,-0.032097,0.014167,0.067858,-0.624841,-1.187104
00935,2159366,0.660039,-0.302021,10.142814,-0.021972,-0.055724,-0.024579,0.067485,-0.625939,-1.196086
00936,2160366,0.426875,-0.021319,9.796400,0.013585,-0.005305,0.003225,0.068248,-0.630827,-1.196877
00937,2161366,0.435778,0.073805,10.389372,-0.019932,0.015532,-0.028527,0.065864,-0.625745,-1.196282
00938,2162366,-0.037240,-0.194043,9.640002,0.001191,0.003623,0.015522,0.059706,-0.625471,-1.173468
00939,2163366,0.287369,0.083888,9.711588,-0.009210,0.047746,-0.029844,0.065331,-0.627346,-1.184550
00940,2164366,0.655037,-0.092390,9.737275,0.026051,-0.018933,0.010309,0.066150,-0.626577,-1.188700
00941,2165366,-0.004185,-0.196445,9.179089,-0.005725,0.017995,0.010782,0.060678,-0.623036,-1.188456
00942,2166366,-0.066960,0.219221,10.092113,-0.010616,0.054460,0.005791,0.072875,-0.627352,-1.186474
00943,2167366,0.391965,0.117946,9.919916,0.011686,-0.034757,0.003602,0.070561,-0.627292,-1.197115
00944,2168366,0.378492,-0.003218,9.869403,-0.009747,-0.005892,-0.003041,0.076693,-0.623377,-1.202554
00945,2169366,0.463155,-0.127481,9.908965,0.014631,0.039306,0.002668,0.080153,-0.625957,-1.214356
00946,2170366,0.678649,0.036240,9.064884,-0.010133,0.080282,-0.023003,0.074204,-0.625551,-1.183982
00947,2171366,-0.335268,0.326542,10.153465,-0.026575,0.049453,-0.015137,0.072721,-0.629019,-1.175638
00948,2172366,-0.599107,-0.472934,9.256726,0.002594,-0.049800,0.034594,0.068793,-0.628303,-1.164339
00949,2173366,0.059989,0.443496,9.986803,-0.005442,-0.059201,-0.040416,0.071649,-0.632683,-1.174308
00950,2174366,0.546487,0.051677,10.369730,-0.002366,-0.017622,0.033536,0.083736,-0.625116,-1.198864
00951,2175366,0.256962,-0.081719,9.333387,-0.011164,-0.008839,-0.013904,0.072023,-0.624394,-1.187083
00952,2176366,-0.199341,0.021137,10.219894,-0.026511,0.029836,-0.002038,0.070249,-0.622271,-1.187321
00953,2177366,-0.206149,-0.015760,9.566210,-0.016621,0.003525,-0.015421,0.074809,-0.623752,-1.185816
00954,2178366,0.341910,-0.064146,9.434028,-0.019388,-0.030139,0.008633,0.082000,-0.619068,-1.193964
00955,2179366,0.150224,-0.110828,10.132745,-0.003241,-0.053509,0.001862,0.078385,-0.623373,-1.192459
00956,2180366,0.146534,-0.146780,9.460644,-0.015570,0.026161,-0.002743,0.072539,-0.624525,-1.190317
00957,2181366,0.350024,0.088015,9.890206,0.001141,0.008751,0.014884,0.073363,-0.628514,-1.193468
00958,2182366,0.280935,-0.064057,10.231153,-0.013220,-0.007632,-0.015230,0.067854,-0.623678,-1.177227
00959,2183366,-0.006314,-0.287303,9.784826,0.012331,0.008335,0.009371,0.066194,-0.627410,-1.182561
00960,2184366,0.121059,0.102115,10.125775,0.030092,0.008840,-0.004977,0.070391,-0.627095,-1.188658
00961,2185366,0.534379,0.458759,10.066883,-0.005904,0.042295,-0.017752,0.078347,-0.618483,-1.187341
00962,2186366,0.091403,0.296270,9.660240,-0.045033,0.046497,-0.006238,0.069392,-0.618150,-1.178052
00963,2187366,-0.620650,-0.268477,10.631321,-0.044072,0.027625,0.006000,0.082475,-0.651541,-1.190213
00964,2188366,-0.318051,-0.379619,9.362100,0.031065,-0.079617,0.004148,0.076176,-0.623246,-1.199319
00965,2189366,0.625960,0.117740,9.911975,0.038020,-0.002533,0.002087,0.085472,-0.622350,-1.193509
00966,2190366,0.489336,-0.249705,10.819739,-0.014976,0.002696,-0.012003,0.083510,-0.630576,-1.187048
00967,2191366,0.079752,-0.619158,8.697982,-0.022690,0.035582,-0.038627,0.072979,-0.630882,-1.171815
00968,2192366,-0.112918,0.479361,10.638017,-0.025064,0.045107,-0.016050,0.070381,-0.628365,-1.158025
00969,2193366,0.129308,-0.276108,9.636083,-0.018315,0.008642,0.023726,0.074540,-0.623160,-1.159004
00970,2194366,0.143836,-0.374824,9.922134,0.035173,0.006222,-0.009665,0.077496,-0.622715,-1.166194
00971,2195366,-0.086792,0.378741,9.643746,-0.021070,-0.022033,-0.015281,0.075041,-0.621427,-1.164618
00972,2196366,0.088058,-0.147281,9.303631,-0.065091,0.062209,-0.007457,0.081682,-0.625295,-1.173670
00973,2197366,-0.049589,0.184122,10.508937,0.018706,-0.019056,0.004678,0.082105,-0.626192,-1.168427
00974,2198366,-0.251203,-0.268271,9.258888,-0.015503,-0.015169,-0.002447,0.078040,-0.621815,-1.165668
00975,2199366,-0.194640,-0.346948,10.279374,-0.017801,-0.040321,0.006629,0.085593,-0.627743,-1.176470
00976,2200366,0.619102,0.150869,8.445395,-0.028406,-0.029968,-0.031494,0.082795,-0.643690,-1.178494
00977,2201366,0.350427,-0.139043,10.418740,-0.022194,-0.029136,-0.009467,0.081989,-0.629153,-1.173586
00978,2202366,-0.003893,-0.518291,10.148316,-0.032617,0.024638,0.001531,0.073029,-0.624062,-1.165298
00979,2203366,0.041121,-0.043541,9.791730,0.030848,-0.045411,-0.023180,0.077117,-0.622650,-1.165298
00980,2204366,0.383052,0.456719,10.207952,0.002333,0.041854,-0.017571,0.079045,-0.626703,-1.165018
00981,2205366,0.383792,-0.284203,8.835514,-0.044392,-0.009263,0.005677,0.084930,-0.618030,-1.172899
00982,2206366,-0.083783,-0.189252,9.495832,0.010227,0.012083,0.003112,0.081128,-0.616678,-1.176197
00983,2207366,-0.129744,-0.049421,9.705732,-0.000782,0.006770,-0.005791,0.085155,-0.619761,-1.162959
00984,2208366,0.217744,-0.328963,10.086913,0.018360,-0.036895,0.004790,0.087588,-0.623243,-1.178171
00985,2209366,0.134812,0.499096,9.572514,-0.018995,-0.050689,-0.047068,0.090615,-0.622601,-1.175461
00986,2210366,-0.065594,-0.306777,10.853146,-0.040749,-0.037616,0.031909,0.096229,-0.627371,-1.187922
00987,2211366,0.409266,-0.080889,10.048370,0.033704,-0.026299,-0.017308,0.080528,-0.623236,-1.173362
00988,2212366,0.601221,0.075108,9.722634,-0.005256,0.028334,-0.009920,0.085221,-0.620025,-1.175195
00989,2213366,0.258464,-0.469489,9.626412,0.004705,0.027929,0.020856,0.083095,-0.616806,-1.170778
00990,2214366,0.049880,0.303142,9.590075,0.004587,0.013231,-0.018039,0.079694,-0.622141,-1.171591
00991,2215366,0.491863,-0.050789,9.877860,-0.002541,0.009268,0.031004,0.081100,-0.621305,-1.169077
00992,2216366,0.523338,0.013334,9.254024,0.001440,0.052167,0.020362,0.088237,-0.622277,-1.173865
00993,2217366,0.058670,-0.187128,9.614773,-0.059929,-0.002690,0.045984,0.089286,-0.624402,-1.177954
00994,2218366,-0.347812,-0.086981,10.013726,-0.031637,0.043625,0.054408,0.083799,-0.610182,-1.169832
00995,2219366,-0.178132,0.029912,9.669636,0.009494,0.003523,0.051575,0.097505,-0.618816,-1.182692
00996,2220366,0.143377,-0.320408,10.123610,0.003236,0.055916,0.087982,0.091423,-0.628322,-1.170113
00997,2221366,0.258289,-0.210196,10.047878,0.031652,-0.042446,0.059123,0.091620,-0.627489,-1.174811
00998,2222366,0.301163,0.130605,10.242397,0.002449,0.073572,0.052250,0.092352,-0.619835,-1.170106
00999,2223366,-0.130789,-0.161274,9.846420,-0.044249,-0.040464,0.027589,0.090506,-0.617909,-1.180242
01000,2224366,-0.157467,-0.116986,9.400288,-0.019279,0.070726,0.077225,0.083072,-0.622595,-1.173537
01001,2225366,-0.222953,-0.315482,10.156640,0.027198,-0.018954,0.075685,0.078359,-0.619184,-1.175084
01002,2226366,0.111725,-0.116531,8.769870,-0.008887,0.009110,0.043269,0.072101,-0.616543,-1.176806
01003,2227366,0.257193,0.080146,9.783570,0.038330,0.037811,0.028650,0.078095,-0.612562,-1.179907
01004,2228366,0.000385,-0.328079,10.064405,-0.007221,0.024422,0.031020,0.079463,-0.615652,-1.182532
01005,2229366,-0.205068,-0.320577,10.239968,-0.036559,-0.030045,0.013220,0.078413,-0.625937,-1.177821
01006,2230366,-0.173873,-0.192001,9.765718,0.000259,0.006906,0.035011,0.076303,-0.620986,-1.181902
01007,2231366,0.282577,0.088198,9.104078,0.049413,0.005368,0.029209,0.077968,-0.622013,-1.175567
01008,2232366,0.285806,0.194892,9.021643,-0.017191,-0.007765,0.011892,0.080027,-0.633784,-1.178004
01009,2233366,0.201505,-0.604768,9.872249,-0.003789,0.063417,0.041436,0.078468,-0.620280,-1.181181
01010,2234366,-0.241028,-0.309947,9.724546,0.026786,-0.006203,0.023269,0.072353,-0.626059,-1.173362
01011,2235366,-0.211837,-0.244440,9.634404,-0.025478,-0.038698,0.007819,0.062124,-0.625465,-1.159047
01012,2236366,-0.267837,-0.132803,9.882687,0.039921,0.021873,0.017353,0.053860,-0.630219,-1.160448
01013,2237366,-0.069447,-0.052668,8.571485,-0.016721,-0.025757,-0.003798,0.066530,-0.621422,-1.168462
01014,2238366,0.190382,0.164810,9.329179,-0.017191,-0.009932,0.027867,0.056250,-0.627648,-1.160665
01015,2239366,0.077204,-0.088967,9.471531,0.026713,-0.055635,0.011163,0.059404,-0.629966,-1.161673
01016,2240366,0.088363,0.004757,10.501863,-0.001244,0.007077,0.013620,0.063875,-0.633378,-1.161568
01017,2241366,-0.029031,-0.401378,10.198924,0.017669,-0.045609,0.034132,0.062113,-0.624764,-1.171305
01018,2242366,0.239781,-0.111117,9.515780,-0.008598,-0.005169,0.000141,0.056788,-0.630805,-1.171396
01019,2243366,0.316296,0.445267,9.794693,-0.010915,-0.008827,0.028465,0.050163,-0.632397,-1.149086
01020,2244366,-0.059817,-0.192117,9.629160,-0.013070,0.080460,0.033806,0.047312,-0.629179,-1.148995
01021,2245366,-0.028582,0.195703,8.829691,0.011335,-0.091819,-0.041255,0.044538,-0.626926,-1.148883
01022,2246366,0.486934,0.134087,9.500923,-0.030422,0.081270,0.032725,0.042945,-0.622106,-1.156199
01023,2247366,0.284167,-0.802366,9.845923,-0.020240,-0.044698,-0.007935,0.055630,-0.623988,-1.172089
01024,2248366,-0.156733,0.174866,9.930837,0.011028,0.020922,-0.003661,0.040687,-0.623579,-1.148443
01025,2249366,-0.077714,-0.429717,8.955540,-0.008252,0.005176,0.015823,0.047526,-0.630209,-1.151313
01026,2250366,0.046107,0.585897,9.273062,-0.005928,0.007727,-0.010282,0.041285,-0.633028,-1.139776
01027,2251366,0.219039,-0.227688,10.437150,-0.020677,-0.029655,0.012939,0.051091,-0.636320,-1.148457
01028,2252366,0.080537,-0.378953,9.520437,-0.000575,0.011735,-0.017594,0.047152,-0.634902,-1.149416
01029,2253366,-0.110508,-0.207566,9.177950,0.066452,0.027888,0.009059,0.041806,-0.637917,-1.142010
01030,2254366,-0.622106,-0.639236,10.413960,-0.023717,-0.011350,0.006012,0.038488,-0.640160,-1.131545
01031,2255366,-0.198261,0.207359,9.992724,0.023330,0.011916,-0.008510,0.034944,-0.640671,-1.131020
01032,2256366,0.139424,-0.181823,9.356324,0.013312,-0.037928,0.018302,0.038279,-0.640292,-1.139105
01033,2257366,0.055620,0.223167,11.264985,0.017162,0.018636,-0.005633,0.031852,-0.637455,-1.132371
01034,2258366,0.189886,-0.049900,9.862700,0.007527,-0.020902,0.038194,0.033812,-0.645235,-1.127331
01035,2259366,0.069780,-0.400382,8.594072,-0.013512,0.008809,0.006596,0.038834,-0.640093,-1.126323
01036,2260366,-0.013161,0.121495,9.913256,-0.004017,-0.024593,0.033537,0.039569,-0.646012,-1.130873
01037,2261366,-0.167097,0.005086,9.661731,0.020643,-0.021149,0.023834,0.043234,-0.643703,-1.136116
01038,2262366,-0.406682,0.423365,10.203274,-0.015855,-0.014356,0.004072,0.028548,-0.653972,-1.118903
01039,2263366,0.046954,-0.214475,9.939008,0.012977,-0.019681,0.050207,0.031839,-0.649164,-1.144006
01040,2264366,0.113569,-0.220038,9.961234,0.021219,-0.003745,0.019992,0.025209,-0.645997,-1.122697
01041,2265366,0.474166,0.270024,9.144985,0.011186,-0.003928,0.042004,0.017732,-0.637439,-1.122753
01042,2266366,0.432050,0.248278,9.472617,-0.009248,0.024392,0.028066,0.020314,-0.641688,-1.128045
01043,2267366,0.150176,0.395721,10.406265,-0.003619,0.017384,0.019791,0.025318,-0.647094,-1.128795
01044,2268366,-0.112781,0.316982,10.315195,-0.026494,0.021931,0.070529,0.021874,-0.646377,-1.114612
01045,2269366,-0.279097,-0.420860,10.051332,-0.041421,-0.007647,0.051030,0.021395,-0.651136,-1.116496
01046,2270366,-0.172666,0.070306,10.372435,0.013155,0.024582,0.084095,0.021067,-0.644251,-1.109082
01047,2271366,-0.414367,0.140801,9.696642,-0.005671,0.009795,0.078019,0.034456,-0.639510,-1.124027
01048,2272366,-0.755155,0.039700,10.736664,0.012099,0.007785,0.069676,0.017275,-0.652416,-1.110377
01049,2273366,-0.571897,0.100523,10.554089,0.006757,-0.060011,0.045981,0.006688,-0.651188,-1.113542
01050,2274366,-0.117921,-0.133492,10.107358,-0.048280,-0.000276,0.089409,0.012199,-0.647208,-1.119527
01051,2275366,-0.379195,0.089121,9.889309,-0.024362,-0.036296,0.082209,-0.013841,-0.641383,-1.084554
01052,2276366,-0.479359,-0.343405,9.990905,0.018055,0.014762,0.092325,-0.011414,-0.648922,-1.111023
01053,2277366,-0.150928,0.384501,9.754005,-0.015402,-0.000376,0.055564,-0.009074,-0.653172,-1.117757
01054,2278366,0.161276,0.187034,9.983242,0.007925,0.039498,0.090387,0.004167,-0.642444,-1.121487
01055,2279366,-0.010959,0.641276,10.089289,0.007560,0.068709,0.060319,-0.001843,-0.644562,-1.120766
01056,2280366,-0.230122,0.178051,9.506535,-0.028311,0.107075,0.091720,-0.001739,-0.648091,-1.106108
01057,2281366,-0.901319,0.453054,10.758551,0.001331,0.027523,0.062855,-0.006629,-0.652135,-1.099577
01058,2282366,-0.611594,0.277464,9.933941,0.028159,-0.054643,0.067665,-0.005091,-0.651826,-1.121537
01059,2283366,0.151976,0.318224,9.766171,-0.016803,-0.042115,0.096161,-0.010848,-0.642233,-1.107739
01060,2284366,-0.091954,0.504068,9.679853,0.004331,-0.071952,0.078087,-0.017853,-0.638192,-1.138303
01061,2285366,-0.526812,0.467408,9.548431,-0.011724,-0.030120,0.076661,-0.037367,-0.642792,-1.106663
01062,2286367,-0.207542,-0.017441,9.993377,0.018432,-0.069822,0.053658,-0.044207,-0.644977,-1.114048
01063,2287367,0.852624,0.161238,9.955322,0.029758,-0.022651,0.058732,-0.037378,-0.642091,-1.118920
01064,2288367,0.470785,0.004918,10.190854,-0.024913,0.048556,0.062896,-0.033581,-0.635089,-1.127501
01065,2289367,-0.218164,0.029628,9.094612,-0.037397,0.063596,0.059355,-0.041706,-0.634688,-1.110106
01066,2290367,-0.304225,-0.191962,10.052067,0.001196,0.086977,0.071076,-0.046822,-0.640596,-1.102637
01067,2291367,-0.384415,-0.316561,8.950310,0.008526,-0.021823,0.060727,-0.049151,-0.642268,-1.104780
01068,2292367,0.150355,0.409705,9.343211,0.032560,-0.059776,0.041080,-0.045108,-0.640023,-1.110919
01069,2293367,-0.025281,0.393197,7.908042,-0.057058,0.026665,0.066949,-0.046552,-0.635969,-1.108315
01070,2294367,-0.252923,-0.102101,10.362305,-0.039287,0.038519,0.047896,-0.045475,-0.633468,-1.119522
01071,2295367,-1.006327,-0.604998,10.138761,0.023311,-0.037296,0.064080,-0.062011,-0.631834,-1.092312
01072,2296367,-0.500644,0.372004,9.558723,-0.001194,-0.073703,0.041202,-0.071325,-0.643277,-1.099881
01073,2297367,0.448893,0.296338,9.521094,0.004283,-0.048395,0.083903,-0.047312,-0.641059,-1.127657
01074,2298367,0.479595,0.502217,9.346282,-0.035122,-0.007725,0.021028,-0.056920,-0.636934,-1.123674
01075,2299367,0.020540,-0.001202,9.773903,0.006566,0.073639,0.071392,-0.065215,-0.629145,-1.119578
01076,2300367,-0.340183,0.030887,9.737463,0.026257,0.031812,0.047874,-0.074368,-0.629645,-1.105592
01077,2301367,-0.091817,0.216922,9.594527,0.015690,-0.002566,0.059589,-0.070677,-0.635120,-1.117332
01078,2302367,0.116556,-0.119364,9.812806,-0.004436,-0.000606,0.074068,-0.072281,-0.636790,-1.115148
01079,2303367,0.225716,-0.132287,9.861433,0.042193,0.038802,0.048555,-0.073709,-0.631004,-1.121042
01080,2304367,-0.232109,0.256135,10.102741,-0.028279,0.044852,0.042414,-0.090942,-0.624745,-1.105278
01081,2305367,-0.682133,0.056231,9.997499,0.018496,-0.078063,0.071547,-0.096491,-0.623836,-1.094175
01082,2306367,-0.127370,-0.155794,9.905274,-0.031832,-0.062035,0.043952,-0.093113,-0.633104,-1.106377
01083,2307367,0.324301,-0.013475,9.389780,-0.012477,-0.090688,0.084917,-0.091234,-0.627970,-1.124116
01084,2308367,0.629038,-0.131039,9.763637,-0.010447,0.026291,0.022126,-0.101508,-0.626544,-1.115940
01085,2309367,-0.116097,0.568134,9.850224,-0.048360,0.043073,0.017426,-0.108286,-0.622610,-1.104550
01086,2310367,-0.370493,-0.050321,10.096574,-0.007720,0.024938,0.039762,-0.108956,-0.620550,-1.101358
01087,2311367,-0.546958,0.593467,9.855498,0.001461,0.023609,0.005286,-0.114539,-0.624728,-1.105272
01088,2312367,0.028499,-0.309864,9.112415,0.009968,0.030362,0.051063,-0.107984,-0.621711,-1.105467
01089,2313367,0.086530,0.269353,10.542585,-0.003262,-0.002366,-0.010192,-0.108221,-0.622874,-1.116787
01090,2314367,0.108568,0.127202,9.442436,-0.014375,0.027201,0.045346,-0.108677,-0.621844,-1.115912
01091,2315367,-0.329412,-0.309092,9.264451,-0.045210,-0.020742,-0.009523,-0.110023,-0.625377,-1.109905
01092,2316367,-0.140475,0.509993,10.210167,-0.030378,0.012634,0.011139,-0.092807,-0.631396,-1.160063
01093,2317367,-0.303032,-0.193409,9.613367,-0.029585,0.016872,0.052796,-0.107352,-0.615285,-1.114420
01094,2318367,-0.256380,0.222957,10.278310,0.013652,-0.033244,-0.008602,-0.113346,-0.619266,-1.111320
01095,2319367,-0.217787,0.223935,9.411494,-0.051571,0.022345,0.017060,-0.112631,-0.609748,-1.108995
01096,2320367,-0.127473,-0.398676,10.175059,0.008542,-0.040294,0.013798,-0.116949,-0.608266,-1.109058
01097,2321367,-0.112014,0.142726,9.509714,0.039466,-0.073999,-0.000387,-0.121667,-0.603692,-1.100728
01098,2322367,0.096486,-0.299557,9.691256,-0.005038,-0.011350,0.019186,-0.129645,-0.609278,-1.094547
01099,2323367,0.215700,0.108518,10.062849,-0.017260,0.014202,0.008499,-0.125427,-0.611989,-1.108141
01100,2324367,-0.293445,0.068418,10.234517,-0.053741,0.053171,0.011288,-0.126069,-0.608898,-1.101190
01101,2325367,-0.234280,-0.039182,9.762378,0.016958,0.010126,0.008645,-0.127240,-0.617386,-1.102639
01102,2326367,-0.263656,-0.142725,9.805946,0.038029,0.013839,0.021008,-0.122899,-0.613080,-1.099818
01103,2327367,0.060961,0.253860,9.130674,0.066467,0.003196,-0.001839,-0.126273,-0.617384,-1.096871
01104,2328367,0.191503,0.320065,9.207084,-0.032452,0.000071,0.008700,-0.126339,-0.625936,-1.094891
01105,2329367,0.128507,-0.071474,8.732872,-0.028865,0.029262,0.028599,-0.124838,-0.615517,-1.090599
01106,2330367,0.133704,-0.014485,10.837130,0.061979,0.143483,-0.000817,-0.126513,-0.608569,-1.088058
01107,2331367,0.091461,0.078577,8.888883,0.004556,-0.020072,0.051748,-0.119003,-0.608444,-1.083864
01108,2332367,-0.542304,0.317990,9.800072,-0.005119,-0.046195,-0.040036,-0.136182,-0.608939,-1.070837
01109,2333367,-0.621645,-0.505010,10.244067,-0.023144,-0.039011,0.049222,-0.132924,-0.607595,-1.078943
01110,2334367,-0.317090,-0.156115,9.607349,0.020013,-0.033017,-0.002426,-0.139644,-0.611578,-1.080169
01111,2335367,-0.044748,0.137878,11.149990,0.002613,-0.111391,-0.005703,-0.144639,-0.615688,-1.077418
01112,2336367,0.287177,0.219269,9.176826,-0.000978,-0.033382,0.041047,-0.150967,-0.616842,-1.078161
01113,2337367,0.668268,-0.269201,11.287668,0.039922,0.057354,-0.037727,-0.148610,-0.610544,-1.083137
01114,2338367,0.168852,-0.107801,10.218180,-0.012092,0.034998,0.029912,-0.142760,-0.614150,-1.084278
01115,2339367,-0.199869,-0.284140,8.889664,-0.048576,0.003958,-0.018889,-0.152736,-0.610661,-1.067142
01116,2340367,-0.740293,-0.572661,11.239574,-0.028796,-0.047064,0.010093,-0.169266,-0.606595,-1.060688
01117,2341367,0.159530,0.124689,9.213272,0.039541,0.068427,0.020523,-0.145823,-0.601087,-1.071614
01118,2342367,0.015408,-0.032405,10.643761,-0.028822,-0.152555,-0.004523,-0.160607,-0.600174,-1.068681
01119,2343367,0.015003,0.495532,9.734504,0.028583,0.088040,0.022008,-0.157679,-0.604356,-1.068752
01120,2344367,0.355861,0.250516,10.480671,-0.024910,0.041456,-0.021179,-0.155021,-0.613166,-1.063145
01121,2345367,-0.048872,0.036573,9.517696,-0.036274,-0.000007,0.035688,-0.154719,-0.615861,-1.053183
01122,2346367,-0.224163,-0.222019,9.815653,0.029228,0.014880,-0.009485,-0.162795,-0.613860,-1.050405
01123,2347367,0.087394,-0.293996,9.703237,-0.010584,-0.048833,0.036000,-0.159679,-0.611288,-1.046295
01124,2348367,0.064804,0.036488,10.076541,0.012840,-0.029331,0.020071,-0.166267,-0.610579,-1.050859
01125,2349367,0.028197,-0.220040,10.389214,0.015561,-0.058214,0.032359,-0.164981,-0.611540,-1.043628
01126,2350367,-0.495402,0.056674,10.372953,-0.034116,0.019241,0.041995,-0.179397,-0.613587,-1.042971
01127,2351367,-0.119862,-0.151257,9.855491,-0.006524,-0.028376,0.043625,-0.171546,-0.605042,-1.045434
01128,2352367,0.132082,-0.340763,10.046740,-0.011563,0.014120,0.033779,-0.175138,-0.599962,-1.052049
01129,2353367,0.168985,0.043516,9.176699,-0.007460,0.034735,0.035220,-0.171925,-0.604976,-1.044538
01130,2354367,-0.216296,0.182108,10.609348,0.006104,0.024507,0.059820,-0.177787,-0.604265,-1.044776
01131,2355367,-0.407528,0.120050,10.143201,0.005572,0.005310,0.054582,-0.188231,-0.615052,-1.027522
01132,2356367,0.439316,0.401955,9.606744,0.026176,-0.040160,0.089882,-0.176715,-0.600601,-1.046106
01133,2357367,0.520054,0.108809,8.749076,-0.003737,0.014327,0.069576,-0.175836,-0.598933,-1.052616
01134,2358367,-0.087427,0.525214,9.588663,0.007374,-0.008944,0.073757,-0.185988,-0.599304,-1.038280
01135,2359367,-0.110324,-0.085186,10.477940,0.056834,-0.008304,0.051851,-0.193641,-0.598201,-1.030258
01136,2360367,0.099285,0.186267,9.236979,0.012899,-0.073940,0.086217,-0.186345,-0.593450,-1.034626
01137,2361367,0.504616,0.551243,9.037671,0.009938,-0.076237,0.049812,-0.196760,-0.580009,-1.046869
01138,2362367,0.525403,0.364350,9.755260,-0.072691,0.080735,0.067141,-0.191498,-0.583682,-1.054674
01139,2363367,-0.044571,-0.382245,10.614784,0.055959,-0.015427,0.039720,-0.202690,-0.596663,-1.055382
01140,2364367,0.068369,0.357582,9.409078,0.020368,0.008667,0.004006,-0.206146,-0.598841,-1.042579
01141,2365367,0.425957,-0.040284,9.544620,-0.003532,0.008877,0.047072,-0.207404,-0.596848,-1.046052
01142,2366367,0.619819,0.021115,9.794938,-0.051259,0.051504,-0.004050,-0.198189,-0.586633,-1.052140
01143,2367367,-0.127668,0.060020,10.810052,-0.008720,-0.027400,0.023121,-0.212676,-0.583658,-1.040247
01144,2368367,0.064808,-0.409723,8.516390,-0.020082,0.022628,0.012537,-0.213253,-0.580832,-1.045532
01145,2369367,0.413738,0.030262,9.557014,0.010448,0.005738,0.050920,-0.213033,-0.574209,-1.047471
01146,2370367,0.814234,-0.212858,9.844643,0.048026,0.118840,-0.006050,-0.205145,-0.582964,-1.054430
01147,2371367,0.133469,0.250535,8.889823,0.013305,0.037882,0.015289,-0.222971,-0.582801,-1.013695
01148,2372367,-0.238015,0.129017,9.574541,0.012890,-0.021590,0.017636,-0.211353,-0.589510,-1.038134
01149,2373367,-0.182452,0.482240,9.625313,-0.005262,0.071769,-0.003411,-0.210629,-0.598324,-1.044064
01150,2374367,0.398293,-0.432302,9.407430,0.033151,-0.103943,0.042001,-0.197010,-0.600072,-1.048067
01151,2375367,-0.312038,-0.059432,9.096861,0.011317,0.033452,-0.017029,-0.217765,-0.597352,-1.039276
01152,2376367,0.007419,0.123253,10.110873,0.023231,0.044313,0.012827,-0.201684,-0.592736,-1.044476
01153,2377367,-0.208861,-0.428492,10.216567,-0.073768,0.036123,-0.010021,-0.201173,-0.588109,-1.048711
01154,2378367,-0.268995,0.204710,10.030945,0.011971,0.050320,0.020503,-0.202826,-0.587783,-1.042788
01155,2379367,-0.135507,0.185402,8.967880,0.056594,-0.017338,0.007205,-0.208666,-0.581282,-1.040268
01156,2380367,-0.081215,-0.144357,9.275625,-0.002876,0.003468,0.001524,-0.214900,-0.576448,-1.028353
01157,2381367,0.054916,0.090970,9.845753,0.002355,-0.028621,-0.020114,-0.213609,-0.574977,-1.041878
01158,2382367,-0.262177,-0.299406,10.535526,-0.008760,-0.009197,-0.011198,-0.212621,-0.581597,-1.032729
01159,2383367,-0.057102,0.295246,9.903849,-0.016706,0.003218,-0.022148,-0.218445,-0.585775,-1.038085
01160,2384367,0.244148,-0.111722,9.709530,-0.046685,-0.010853,-0.022997,-0.205530,-0.594147,-1.043034
01161,2385367,0.206802,-0.038062,9.280878,0.019408,-0.036936,0.014534,-0.223094,-0.589819,-1.030112
01162,2386367,0.120021,-0.310297,9.428906,0.053533,0.021971,-0.023088,-0.219973,-0.588410,-1.035880
01163,2387367,0.114383,-0.008944,9.853486,-0.034104,0.013954,-0.007440,-0.223686,-0.588724,-1.026899
01164,2388367,-0.262708,0.168075,9.012812,-0.073345,0.021224,-0.039594,-0.222901,-0.587823,-1.024931
01165,2389367,-0.570612,-0.277209,11.305012,-0.057299,0.013281,0.015483,-0.230647,-0.583892,-1.019310
01166,2390367,-0.243208,-0.059111,9.303082,0.040895,0.027595,-0.007112,-0.225048,-0.577982,-1.023895
01167,2391367,-0.285056,-0.178442,9.866151,0.015337,-0.001295,0.024413,-0.224829,-0.583771,-1.025211
01168,2392367,-0.223497,-0.022526,10.351708,-0.043565,-0.052348,-0.021821,-0.219841,-0.634523,-1.046607
01169,2393367,-0.063497,0.126412,9.711066,-0.032243,-0.026363,-0.006928,-0.231170,-0.600229,-1.026711
01170,2394367,0.203359,-0.377681,10.695219,-0.012495,-0.023776,0.003987,-0.230922,-0.592576,-1.024890
01171,2395367,0.257792,-0.261105,8.622032,0.026947,-0.018236,-0.003763,-0.229856,-0.587749,-1.016342
01172,2396367,0.248460,0.171186,9.211450,-0.030334,0.024389,-0.014415,-0.227242,-0.595725,-1.016875
01173,2397367,-0.102577,-0.086248,10.399192,-0.017096,0.014008,0.011177,-0.236696,-0.597126,-1.001971
01174,2398367,-0.127450,-0.669995,9.586966,0.017207,0.054988,0.005033,-0.230926,-0.582598,-1.004756
01175,2399367,-0.396367,-0.230233,9.988165,-0.015379,-0.032704,-0.038050,-0.226428,-0.593794,-1.011148
01176,2400367,-0.055789,-0.119378,9.042348,0.016633,-0.060520,0.027972,-0.232927,-0.591154,-1.014312
01177,2401367,-0.185222,-0.294870,9.926195,0.036537,0.016715,0.011841,-0.246793,-0.584648,-1.012752
01178,2402367,0.347990,-0.468993,10.580005,-0.023001,-0.009029,-0.015011,-0.226555,-0.599649,-1.017687
01179,2403367,-0.150035,-0.352814,9.880817,-0.053604,-0.032640,-0.034584,-0.264334,-0.592509,-0.942679
01180,2404367,-0.252656,-0.053715,10.745963,0.047136,-0.003600,0.034640,-0.239812,-0.599697,-1.006081
01181,2405367,0.049539,-0.438166,10.502412,0.019837,0.027720,-0.029464,-0.237521,-0.601952,-1.009077
01182,2406367,0.242687,-0.052181,10.266571,-0.050862,-0.021353,-0.004876,-0.231499,-0.596940,-1.008419
01183,2407367,-0.279312,-0.351641,9.490723,-0.010704,0.028909,-0.042328,-0.243774,-0.607665,-0.998920
01184,2408367,-0.077169,0.503587,9.921272,0.057877,0.076099,-0.029333,-0.239707,-0.603227,-0.991423
01185,2409367,-0.231785,-0.214635,10.505725,0.048805,-0.038157,-0.008570,-0.234313,-0.605803,-0.991688
01186,2410367,-0.032582,-0.553008,9.868740,0.032141,-0.027771,-0.028957,-0.238371,-0.593773,-0.988552
01187,2411367,0.286753,0.109396,9.673733,-0.052997,0.003456,-0.105326,-0.225369,-0.609031,-1.002357
01188,2412367,-0.106092,-0.076806,10.748914,-0.060371,0.035588,-0.038508,-0.213553,-0.611311,-1.042370
01189,2413367,-0.285473,-0.139031,9.997972,0.084896,-0.004974,-0.079745,-0.233698,-0.613520,-0.991521
01190,2414367,-0.340719,0.044169,9.796384,0.004274,-0.003596,-0.106962,-0.243300,-0.605339,-0.976281
01191,2415367,-0.433169,-0.089186,9.803801,-0.016639,0.036360,-0.102066,-0.238572,-0.623024,-0.971732
01192,2416367,-0.339099,0.214334,9.757243,-0.043233,0.015960,-0.111599,-0.238472,-0.618200,-0.968952
01193,2417367,-0.015122,-0.675999,10.353703,-0.033359,-0.066008,-0.128290,-0.226843,-0.625610,-0.981133
01194,2418367,0.189690,-0.091997,9.869528,-0.035736,0.015894,-0.167203,-0.224964,-0.627667,-0.977115
01195,2419367,-0.333557,-0.590122,10.490869,-0.032288,0.002002,-0.142658,-0.220821,-0.627789,-0.958718
01196,2420367,-0.329522,-0.312861,10.348635,0.004034,0.027273,-0.165927,-0.225914,-0.631504,-0.937612
01197,2421367,-0.375837,0.098321,10.105557,-0.018892,-0.039732,-0.180118,-0.205564,-0.635191,-0.949267
01198,2422367,-0.157391,-0.481247,9.750238,-0.036439,-0.027716,-0.162815,-0.198242,-0.641820,-0.949253
01199,2423367,0.066789,0.004661,9.712542,-0.036185,-0.064264,-0.195596,-0.202888,-0.633453,-0.941902
01200,2424367,-0.044323,0.314305,9.550406,-0.027424,-0.039196,-0.129980,-0.194461,-0.643741,-0.927580
01201,2425367,-0.415631,-0.136178,9.544777,0.014018,0.005723,-0.132044,-0.202367,-0.645532,-0.922379
01202,2426367,-0.150397,-0.174354,9.476788,0.018495,0.002680,-0.084664,-0.187325,-0.648309,-0.921489
01203,2427367,0.001228,-0.709691,10.551394,0.006688,0.002714,-0.101016,-0.194938,-0.639685,-0.919207
01204,2428367,0.352048,-0.700682,10.268159,-0.020735,-0.018419,-0.205976,-0.190325,-0.651516,-0.909561
01205,2429367,-0.155287,-0.167864,9.454166,0.003137,-0.026914,-0.233845,-0.172261,-0.661302,-0.906341
01206,2430367,-0.204135,0.467497,9.523207,0.014494,0.003669,-0.150463,-0.163717,-0.656219,-0.887481
01207,2431367,0.179163,-0.375730,10.108026,-0.030890,0.026929,-0.131588,-0.174413,-0.657490,-0.873670
01208,2432367,0.151654,-0.359810,9.837888,0.018670,0.014935,-0.138368,-0.148018,-0.672764,-0.901419
01209,2433367,-0.151131,-0.242947,9.547538,0.021801,-0.010625,-0.175172,-0.145252,-0.660281,-0.882398
01210,2434367,-0.035933,-0.290753,10.168650,-0.000176,-0.037371,-0.230704,-0.141039,-0.669020,-0.864359
01211,2435367,-0.081182,-0.004394,9.891332,0.004787,0.056022,-0.147870,-0.128266,-0.668973,-0.878849
01212,2436367,-0.136298,-0.295334,9.706580,0.002172,0.043226,-0.168768,-0.118239,-0.676429,-0.856833
01213,2437367,0.175452,-0.613070,9.496250,-0.025399,0.010466,-0.177695,-0.097511,-0.676584,-0.880262
01214,2438367,-0.351750,-0.254699,10.328436,-0.022365,0.037353,-0.261475,-0.085710,-0.686164,-0.858008
01215,2439367,-0.150912,-0.161180,9.601750,-0.003393,-0.040878,-0.185767,-0.083940,-0.674714,-0.848515
01216,2440367,-0.133181,-0.481814,9.635620,-0.012992,0.011348,-0.187430,-0.062849,-0.680262,-0.853463
01217,2441367,-0.066279,-0.260357,9.646266,-0.008549,0.002914,-0.219361,-0.052185,-0.686050,-0.839399
01218,2442367,-0.269487,-0.455621,10.401032,-0.003776,-0.039771,-0.282936,-0.046103,-0.676544,-0.851978
01219,2443367,-0.033332,-0.303852,9.286508,-0.022201,-0.013691,-0.239640,-0.022089,-0.677921,-0.868876
01220,2444367,0.138300,0.279704,9.263557,0.030196,0.041854,-0.158387,0.014838,-0.692889,-0.911857
01221,2445367,-0.125808,0.018362,10.096334,-0.009958,0.010812,-0.174677,-0.002024,-0.673931,-0.834965
01222,2446367,-0.433472,-0.074733,10.155482,-0.018138,0.001628,-0.334693,0.007196,-0.672070,-0.829175
01223,2447367,-0.315751,-0.577855,9.572958,-0.014439,-0.026605,-0.226517,0.025782,-0.670739,-0.839689
01224,2448367,0.171336,-0.331816,9.583117,0.011063,-0.016521,-0.250843,0.065198,-0.696291,-0.825716
01225,2449367,0.015724,0.096230,9.990044,0.018870,-0.007708,-0.255106,0.059965,-0.668389,-0.847408
01226,2450367,-0.044442,-0.440199,10.029001,-0.027579,-0.015537,-0.273970,0.062460,-0.665752,-0.843845
01227,2451367,0.201521,-0.388909,10.059997,-0.000672,-0.005060,-0.221947,0.076695,-0.662807,-0.848303
01228,2452367,-0.228608,-0.519325,9.834153,0.008624,0.007532,-0.206950,0.079020,-0.659973,-0.836283
01229,2453367,0.011925,0.153937,10.058291,-0.018768,-0.005841,-0.309086,0.093743,-0.658189,-0.847735
01230,2454367,0.286667,-0.006447,9.690599,0.016219,-0.024140,-0.204083,0.103490,-0.646373,-0.865556
01231,2455367,0.232262,-0.440319,9.397812,0.004325,0.024814,-0.221419,0.109424,-0.643291,-0.866298
01232,2456367,-0.263592,-0.014038,9.839233,-0.000748,0.023527,-0.289991,0.128115,-0.645489,-0.862153
01233,2457367,-0.208073,0.142248,9.680011,0.002868,-0.052801,-0.256582,0.131258,-0.634696,-0.876041
01234,2458367,0.356035,-0.322626,9.786296,0.027082,0.027680,-0.194754,0.146597,-0.628218,-0.887947
01235,2459367,-0.324618,0.729217,9.126409,-0.000317,0.050109,-0.268506,0.157431,-0.637799,-0.871462
01236,2460367,0.086037,-0.483507,9.643613,-0.065666,-0.028366,-0.295718,0.173528,-0.631452,-0.885160
01237,2461367,0.004976,0.094040,9.619374,0.020023,0.030748,-0.232266,0.186720,-0.627544,-0.895408
01238,2462367,-0.297433,-0.002436,9.702996,0.012805,-0.004604,-0.326705,0.185238,-0.622196,-0.876808
01239,2463367,0.471885,-1.662609,10.073059,-0.069833,-0.042051,-0.240417,0.190453,-0.611463,-0.881497
01240,2464367,-0.030296,0.358819,9.706919,0.084222,0.050501,-0.248084,0.198177,-0.608773,-0.890499
01241,2465367,-0.230867,0.579598,9.479891,-0.044429,-0.031327,-0.236784,0.200189,-0.600918,-0.868685
01242,2466367,0.338203,-1.712786,10.381483,-0.068764,-0.047316,-0.266050,0.220615,-0.601973,-0.891197
01243,2467367,-0.209478,1.201930,9.356773,0.087514,0.019150,-0.241207,0.230659,-0.591691,-0.889180
01244,2468367,0.134545,0.041914,9.754089,-0.065522,-0.008975,-0.212903,0.230950,-0.600877,-0.869720
01245,2469367,0.053938,-0.986914,9.949791,-0.033379,-0.015262,-0.293957,0.242125,-0.598442,-0.870769
01246,2470367,-0.150867,0.652237,9.669144,0.019109,0.025020,-0.225990,0.252054,-0.587524,-0.884789
01247,2471367,0.017709,-0.189262,9.836185,-0.023814,-0.011823,-0.179562,0.258373,-0.576855,-0.886049
01248,2472367,-0.183545,-0.149339,9.845102,0.027136,-0.007461,-0.246672,0.263366,-0.581560,-0.899055
01249,2473367,0.211788,-0.632606,9.776090,-0.013913,-0.007400,-0.172427,0.251736,-0.574150,-0.886875
01250,2474367,0.144225,0.410515,9.784302,0.046254,0.025391,-0.249103,0.273668,-0.573140,-0.893216
01251,2475367,-0.062304,0.097304,9.747085,-0.020765,-0.026584,-0.233355,0.274009,-0.568315,-0.888994
01252,2476368,0.398002,-1.065498,10.262146,-0.006622,-0.038673,-0.213090,0.278400,-0.558813,-0.911668
01253,2477368,-0.021278,0.677339,10.015039,0.039195,0.001558,-0.223041,0.286943,-0.562545,-0.903064
01254,2478368,0.154130,0.225619,9.835876,-0.042421,-0.025597,-0.241564,0.287114,-0.553926,-0.901265
01255,2479368,0.861909,-1.085875,9.158010,-0.049698,-0.062019,-0.241694,0.294994,-0.540754,-0.910847
01256,2480368,-0.566674,1.493619,9.675949,0.100946,0.092339,-0.244893,0.290368,-0.542605,-0.889237
01257,2481368,-0.423482,0.096277,9.606240,-0.058383,-0.052786,-0.225475,0.293676,-0.538037,-0.879947
01258,2482368,0.677221,-1.249810,9.899112,-0.011885,-0.008652,-0.120118,0.304312,-0.530473,-0.913156
01259,2483368,-0.296647,0.756223,10.046961,0.043235,0.047205,-0.233816,0.316054,-0.532136,-0.878287
01260,2484368,0.044905,-0.234000,9.876525,-0.089404,-0.062375,-0.198702,0.298844,-0.516493,-0.870642
01261,2485368,0.523953,-0.827170,9.912499,0.024695,-0.014891,-0.169493,0.323527,-0.512739,-0.912488
01262,2486368,0.055063,0.486791,9.483414,0.017153,0.015875,-0.248878,0.315986,-0.495102,-0.890051
01263,2487368,0.329551,-0.173524,9.686970,-0.019377,-0.020584,-0.189407,0.323402,-0.504559,-0.887637
01264,2488368,0.341296,-0.020843,9.867565,0.016766,0.017776,-0.180109,0.342500,-0.502196,-0.891507
01265,2489368,0.330442,0.090718,9.822721,-0.001726,-0.006934,-0.253262,0.339292,-0.493124,-0.887761
01266,2490368,0.031451,-0.474661,9.656366,0.008544,-0.020681,-0.185269,0.321123,-0.492219,-0.905018
01267,2491368,0.114178,0.407575,9.504018,0.030925,-0.021112,-0.259705,0.342800,-0.471716,-0.894669
01268,2492368,0.891815,-1.100562,9.958727,-0.086015,-0.061388,-0.202255,0.337839,-0.470739,-0.876902
01269,2493368,-0.118322,0.630766,10.040441,0.101439,0.055172,-0.207356,0.339975,-0.472688,-0.911953
01270,2494368,0.044466,0.256849,9.622787,-0.047608,-0.079542,-0.229834,0.335335,-0.471051,-0.860711
01271,2495368,0.796696,-0.950548,10.048971,0.025182,-0.061505,-0.150980,0.332067,-0.448496,-0.898119
01272,2496368,-0.238688,0.848726,10.150574,0.053053,0.014878,-0.252385,0.335495,-0.454540,-0.892925
01273,2497368,0.594608,-0.544083,9.883963,-0.040025,-0.068998,-0.160208,0.335980,-0.438533,-0.901541
01274,2498368,0.200853,0.558644,10.217779,0.056114,-0.000475,-0.241743,0.348676,-0.448308,-0.883418
01275,2499368,0.470121,-0.100168,9.800420,-0.036748,-0.044096,-0.191224,0.320094,-0.437904,-0.827135
01276,2500368,0.714724,-0.371962,9.596208,0.012153,-0.004520,-0.234476,0.352386,-0.423633,-0.915778
01277,2501368,-0.020437,1.150707,9.153906,0.002789,-0.009085,-0.239584,0.337942,-0.430307,-0.908002
01278,2502368,1.063534,-1.096810,9.383640,-0.066383,-0.071403,-0.231439,0.360566,-0.418377,-0.936534
01279,2503368,0.103361,1.563403,9.047555,0.072505,0.078665,-0.281236,0.341385,-0.407011,-0.870660
01280,2504368,0.459567,0.493899,8.961833,-0.094737,-0.090678,-0.242642,0.353230,-0.399445,-0.896658
01281,2505368,0.872115,-1.030469,9.325189,-0.005259,0.014218,-0.176467,0.349109,-0.393533,-0.912297
01282,2506368,0.369924,1.224205,9.511541,0.027340,0.064748,-0.246993,0.342398,-0.384644,-0.892010
01283,2507368,0.645070,-0.702905,9.615033,-0.111300,-0.104617,-0.240728,0.351821,-0.381488,-0.868782
01284,2508368,0.724433,0.193444,9.350451,0.080717,0.092524,-0.216991,0.339009,-0.371078,-0.902944
01285,2509368,0.412262,0.834518,9.469580,-0.014910,0.016319,-0.208871,0.345204,-0.359420,-0.857594
01286,2510368,0.599403,0.352564,9.461890,-0.038801,-0.047824,-0.288185,0.341801,-0.362784,-0.901298
01287,2511368,0.940577,-0.073275,9.979835,0.010381,0.045530,-0.169741,0.345029,-0.347273,-0.871895
01288,2512368,0.514378,0.795325,9.687271,0.022561,-0.009194,-0.249173,0.331828,-0.341665,-0.863649
01289,2513368,0.570709,-0.595780,10.110191,-0.014906,-0.031804,-0.217293,0.333642,-0.331048,-0.848017
01290,2514368,1.135395,-0.121568,10.052579,0.033360,0.002301,-0.183849,0.336328,-0.328039,-0.871285
01291,2515368,0.412210,1.114795,9.107858,0.055339,0.040033,-0.209047,0.337473,-0.311766,-0.863339
01292,2516368,0.443358,-0.010383,9.917406,-0.011918,0.003267,-0.148451,0.348175,-0.318849,-0.865271
01293,2517368,-0.454427,0.568881,9.887564,0.030812,0.056278,-0.280377,0.331205,-0.315616,-0.855562
01294,2518368,-0.571209,0.556528,9.554831,-0.046360,-0.016414,-0.251478,0.338227,-0.310734,-0.855253
01295,2519368,0.893412,-0.902125,9.909968,-0.010321,-0.072566,-0.148110,0.332778,-0.304999,-0.841371
01296,2520368,0.799151,0.431654,10.048128,0.047473,0.061635,-0.248593,0.332993,-0.286428,-0.866067
01297,2521368,-0.033729,1.606344,9.718871,-0.000513,0.027198,-0.160202,0.323546,-0.274956,-0.829651
01298,2522368,0.981775,-0.226905,10.425026,-0.029086,-0.038846,-0.259410,0.323430,-0.274321,-0.845689
01299,2523368,0.826569,-0.068610,9.901432,-0.010093,0.037570,-0.251196,0.321383,-0.252464,-0.863630
01300,2524368,-0.172042,1.369561,9.430603,0.004957,0.061733,-0.243244,0.334394,-0.253225,-0.823909
01301,2525368,0.433869,0.042344,9.538857,-0.074533,-0.013727,-0.211212,0.320325,-0.246389,-0.807774
01302,2526368,0.056674,1.051619,9.386308,0.062770,0.039392,-0.219028,0.311347,-0.233868,-0.855634
01303,2527368,-0.003921,0.457763,10.080985,-0.024553,0.003556,-0.223055,0.324686,-0.250329,-0.833584
01304,2528368,0.430517,-0.087489,9.777834,0.005765,0.000948,-0.233719,0.319098,-0.214949,-0.819609
01305,2529368,0.160049,0.034305,10.344966,-0.011466,0.013239,-0.195608,0.290188,-0.207291,-0.850950
01306,2530368,0.114642,0.339968,10.240766,0.033119,0.003200,-0.227867,0.309197,-0.210453,-0.845342
01307,2531368,0.044873,0.444889,10.191575,0.007366,-0.002980,-0.237289,0.287214,-0.197865,-0.783117
01308,2532368,0.409746,0.118613,10.176964,0.026266,-0.020751,-0.255364,0.295230,-0.170377,-0.838550
01309,2533368,0.069726,1.138141,9.723256,0.025649,-0.003998,-0.264660,0.293153,-0.177968,-0.848127
01310,2534368,0.554221,0.360625,9.671430,-0.029536,-0.016342,-0.287028,0.289764,-0.164402,-0.859061
01311,2535368,0.227716,0.752281,9.533867,-0.017059,-0.000153,-0.292368,0.273945,-0.137244,-0.841027
01312,2536368,0.482878,0.199372,9.631271,-0.052311,0.014081,-0.258139,0.267698,-0.140525,-0.851626
01313,2537368,-0.394306,1.139457,9.773688,-0.011413,0.004657,-0.314909,0.262535,-0.128431,-0.851919
01314,2538368,0.089645,0.177139,9.074345,-0.024793,0.018279,-0.248708,0.228490,-0.114841,-0.858038
01315,2539368,0.441975,0.262686,10.006636,-0.015949,0.006416,-0.271493,0.226171,-0.110022,-0.869680
01316,2540368,0.040190,0.337101,9.846174,-0.068700,0.009715,-0.233397,0.223332,-0.089527,-0.911723
01317,2541368,-0.030887,0.113435,10.246088,-0.001289,-0.024678,-0.252412,0.191067,-0.091981,-0.851955
01318,2542368,0.117505,0.490610,10.124976,-0.031699,-0.028484,-0.188984,0.178044,-0.066506,-0.852409
01319,2543368,0.047755,0.147025,10.180207,-0.000216,-0.035390,-0.181533,0.175567,-0.051404,-0.875972
01320,2544368,0.062181,0.284628,10.106909,-0.022621,-0.038128,-0.178313,0.138555,-0.044748,-0.865402
01321,2545368,0.098067,0.464112,10.070517,0.012960,-0.028779,-0.250329,0.147318,-0.043481,-0.890750
01322,2546368,0.534582,0.110148,9.814680,-0.027542,-0.032555,-0.129843,0.119239,-0.037727,-0.871094
01323,2547368,0.146908,0.552168,9.821728,0.013729,-0.004202,-0.096196,0.096786,-0.033848,-0.862520
01324,2548368,0.069242,0.425741,9.498878,-0.000788,-0.038572,-0.093651,0.083200,-0.025040,-0.886391
01325,2549368,0.623545,-0.045546,10.189554,0.012546,0.012174,-0.080073,0.073287,-0.023439,-0.913504
01326,2550368,0.680404,0.227932,10.057010,0.001816,-0.005667,-0.115810,0.061964,-0.028702,-0.911495
01327,2551368,0.278018,1.022617,10.029999,0.006581,-0.024118,-0.060077,0.044038,-0.026173,-0.895297
01328,2552368,0.478140,0.153342,10.091579,0.010983,-0.006582,-0.020312,0.036603,-0.032482,-0.920604
01329,2553368,0.216731,0.673600,10.675456,0.015040,0.004125,-0.043096,0.016709,-0.049428,-0.887446
01330,2554368,0.218233,0.446766,10.354808,-0.017196,0.014570,-0.017405,0.003659,-0.054563,-0.889414
01331,2555368,0.214960,0.456551,10.736375,-0.006008,-0.004449,-0.040203,0.006680,-0.065169,-0.876205
01332,2556368,0.487731,0.327745,9.962696,-0.016212,0.023661,-0.011024,-0.005494,-0.063879,-0.885684
01333,2557368,0.185248,0.530576,9.953904,0.005073,0.015592,-0.033732,0.002806,-0.080022,-0.877900
01334,2558368,0.284372,0.060701,10.143288,-0.010741,0.009126,0.020126,-0.012243,-0.084899,-0.879168
01335,2559368,0.467601,0.359176,9.786267,0.033291,0.001731,-0.016096,-0.007144,-0.087914,-0.856382
01336,2560368,1.081837,0.424768,9.984304,0.025821,-0.015776,-0.044386,0.011159,-0.099324,-0.883732
01337,2561368,0.657834,0.161490,9.219805,0.002726,0.082494,0.018180,0.009181,-0.105686,-0.879652
01338,2562368,0.076326,0.258245,9.388887,0.005335,0.074641,-0.043224,0.010856,-0.116229,-0.871315
01339,2563368,-0.152118,0.571458,10.300358,0.010002,0.005389,-0.007840,0.018476,-0.120796,-0.862340
01340,2564368,-0.000035,-0.104793,9.477260,0.005711,0.013276,0.025425,0.024327,-0.127998,-0.852603
01341,2565368,-0.036738,0.282309,9.624548,0.004997,0.019450,-0.042558,0.021706,-0.127674,-0.852449
01342,2566368,-0.044465,0.751741,10.353281,-0.000516,-0.006717,-0.029017,0.022557,-0.127037,-0.862719
01343,2567368,0.278249,0.564578,9.274536,-0.020453,-0.032543,0.033333,0.027596,-0.123760,-0.859330
01344,2568368,0.090665,0.219003,9.343054,0.001378,0.013789,-0.031283,0.029012,-0.132440,-0.854815
01345,2569368,0.092937,0.615948,9.161141,0.015301,0.012162,-0.004080,0.028177,-0.131345,-0.853044
01346,2570368,0.161047,0.517665,9.943553,0.025833,-0.045259,0.029878,0.031501,-0.133860,-0.862509
01347,2571368,0.098989,0.209989,9.334332,-0.000539,0.022336,-0.011554,0.033786,-0.131356,-0.866505
01348,2572368,0.256080,0.331740,9.720990,-0.026849,-0.001471,-0.020656,0.056743,-0.139885,-0.911706
01349,2573368,0.073791,0.761526,9.838646,0.017037,0.011384,-0.015311,0.037312,-0.144987,-0.857910
01350,2574368,0.127808,0.595019,10.157344,-0.030968,-0.005731,0.008854,0.031060,-0.143509,-0.869509
01351,2575368,0.231204,0.165405,9.472499,0.002589,0.018733,-0.000069,0.034525,-0.150849,-0.880311
01352,2576368,0.175427,0.461957,10.123152,-0.027022,0.022174,-0.031626,0.043452,-0.159403,-0.871603
01353,2577368,-0.119706,0.629478,9.514606,0.000269,0.039770,-0.002560,0.043810,-0.156442,-0.865001
01354,2578368,-0.106514,0.560066,10.674736,-0.013497,-0.006706,-0.000137,0.040735,-0.146274,-0.853716
01355,2579368,0.570099,0.085365,9.805970,0.009852,-0.012536,-0.022149,0.042041,-0.155481,-0.875117
01356,2580368,0.692770,0.109847,9.884823,-0.006512,0.019392,-0.000782,0.049821,-0.150729,-0.876601
01357,2581368,0.065449,-0.057875,10.877642,0.001339,0.056892,-0.001395,0.049451,-0.160181,-0.873703
01358,2582368,-0.278463,0.173657,10.619844,-0.006117,0.054138,-0.016411,0.047134,-0.153738,-0.853332
01359,2583368,-0.472373,0.353591,10.115182,0.032646,0.006639,-0.019002,0.045517,-0.170713,-0.851905
01360,2584368,-0.175153,0.890281,9.720892,0.011083,0.011241,-0.010592,0.060302,-0.171625,-0.854837
01361,2585368,-0.278078,0.470166,9.883122,-0.005615,-0.031397,0.000178,0.055263,-0.171308,-0.869104
