// General information: 
//  MT Manager version: 2025.2.0 
//  XDA version: 2025.2.0 build 250509001 rev 1746715332 built on 2025-05-09
// Device information: 
//  DeviceId: 0080001528
//  ProductCode: MTi-670-8A1G6
//  Firmware Version: 1.0.0
//  Hardware Version: 1.0.0
// Device settings: 
//  Filter Profile: General(21.3)
//  Option Flags: Orientation Smoother Enabled, Position/Velocity Smoother Disabled, Continuous Zero Rotation Update Disabled, AHS Disabled, ICC Enabled
// Coordinate system: ENU
PacketCounter,SampleTimeFine,Acc_X,Acc_Y,Acc_Z,Gyr_X,Gyr_Y,Gyr_Z,Mag_X,Mag_Y,Mag_Z
00074,3905134,0.368953,0.145437,9.804036,-0.001802,0.000969,0.001689,-0.371157,-0.264274,-1.318400
00075,3906134,0.372655,0.140578,9.784200,-0.004482,0.000731,0.003033,-0.374826,-0.261826,-1.314157
00076,3907134,0.361982,0.140639,9.827280,-0.004956,-0.001571,0.001574,-0.372519,-0.265943,-1.314774
00077,3908134,0.367117,0.145590,9.793925,-0.003344,-0.001904,0.002591,-0.376761,-0.265426,-1.314816
00078,3909134,0.357251,0.153321,9.819013,-0.003471,-0.001120,0.002844,-0.372920,-0.259256,-1.317258
00079,3910134,0.350340,0.149315,9.799623,-0.001213,-0.000288,0.000825,-0.374491,-0.261058,-1.321193
00080,3911134,0.371369,0.133810,9.800868,-0.004339,0.002617,0.003397,-0.376117,-0.259701,-1.311511
00081,3912134,0.376015,0.149495,9.806516,0.000300,0.001772,0.001156,-0.371871,-0.264977,-1.310468
00082,3913134,0.369978,0.135929,9.806969,-0.000596,0.001010,0.002899,-0.368569,-0.264466,-1.312435
00083,3914134,0.367229,0.137896,9.820056,-0.001028,0.000369,0.004499,-0.373870,-0.264718,-1.309768
00084,3915134,0.386560,0.150277,9.795262,-0.001776,0.001492,0.002431,-0.371766,-0.261315,-1.317566
00085,3916134,0.380127,0.146611,9.827471,-0.001684,-0.000700,-0.001514,-0.375898,-0.265490,-1.312828
00086,3917134,0.371540,0.149393,9.823985,-0.000845,-0.004354,0.002935,-0.373371,-0.262985,-1.315382
00087,3918134,0.351053,0.141124,9.803722,-0.000755,-0.002168,0.001102,-0.373294,-0.263949,-1.315362
00088,3919134,0.374472,0.129142,9.810665,-0.003219,0.001513,0.002456,-0.372228,-0.267938,-1.317070
00089,3920134,0.377354,0.149325,9.787796,-0.002754,-0.003275,0.001060,-0.370855,-0.263375,-1.319317
00090,3921134,0.365557,0.124081,9.799957,-0.002487,-0.001480,0.002719,-0.373975,-0.264784,-1.313549
00091,3922134,0.366605,0.146475,9.791590,-0.003307,-0.000541,-0.000359,-0.372607,-0.267873,-1.316174
00092,3923134,0.361141,0.134914,9.820318,-0.004135,-0.002287,0.000720,-0.373277,-0.265813,-1.312982
00093,3924134,0.376964,0.149260,9.775621,-0.002564,0.005823,-0.001210,-0.373112,-0.261252,-1.322439
00094,3925134,0.396841,0.135508,9.817553,-0.003180,-0.001633,0.002901,-0.373271,-0.258160,-1.312603
00095,3926134,0.352049,0.141000,9.796216,-0.004767,0.000039,0.003771,-0.375109,-0.239767,-1.312105
00096,3927134,0.375299,0.147584,9.811713,0.000260,0.001820,0.003398,-0.377496,-0.259507,-1.310265
00097,3928134,0.377810,0.131095,9.832406,0.002512,0.001480,0.001209,-0.356745,-0.264660,-1.298301
00098,3929134,0.373412,0.141008,9.795090,-0.001345,0.004541,-0.001737,-0.371733,-0.265043,-1.312806
00099,3930134,0.359803,0.137165,9.832236,0.000235,-0.004052,0.002905,-0.373969,-0.257131,-1.313170
00100,3931134,0.369142,0.152527,9.803391,-0.003314,-0.000876,0.003556,-0.374129,-0.262855,-1.313590
00101,3932134,0.381931,0.143601,9.804514,-0.002769,0.001629,0.002002,-0.374750,-0.262790,-1.314136
00102,3933134,0.395159,0.134480,9.802485,-0.002328,-0.001103,0.002942,-0.372766,-0.261186,-1.317216
00103,3934134,0.369374,0.134316,9.794049,-0.004220,0.003273,0.000871,-0.369536,-0.264468,-1.318204
00104,3935134,0.373085,0.155679,9.838560,-0.007008,0.000700,0.002774,-0.373838,-0.264849,-1.315887
00105,3936134,0.377835,0.142298,9.805533,-0.003396,-0.004371,0.002751,-0.372689,-0.262150,-1.317195
00106,3937134,0.377656,0.137014,9.812336,-0.004093,0.002860,-0.000319,-0.390682,-0.257385,-1.331652
00107,3938134,0.369772,0.148953,9.779622,-0.003254,-0.000326,0.003006,-0.372140,-0.266008,-1.315670
00108,3939134,0.369605,0.137257,9.796622,-0.007758,-0.000311,0.001384,-0.380451,-0.263546,-1.292198
00109,3940134,0.369231,0.158194,9.801031,-0.002673,-0.000606,0.002993,-0.369262,-0.268195,-1.312001
00110,3941134,0.372623,0.135687,9.812044,-0.002749,-0.001857,0.001208,-0.373733,-0.264783,-1.312107
00111,3942134,0.352977,0.159862,9.802797,-0.000738,0.003064,0.003850,-0.368459,-0.265562,-1.318533
00112,3943134,0.398114,0.160272,9.781744,-0.000538,0.001901,0.003823,-0.371376,-0.258486,-1.317083
00113,3944134,0.383023,0.137093,9.792450,-0.001740,0.002826,0.002699,-0.372612,-0.263115,-1.317174
00114,3945134,0.374926,0.137741,9.821034,-0.001626,0.000473,0.000832,-0.372129,-0.263113,-1.314290
00115,3946134,0.372982,0.144040,9.799554,-0.002374,0.001005,0.002477,-0.371222,-0.260415,-1.317041
00116,3947134,0.385563,0.124695,9.795382,-0.001791,0.001311,0.002187,-0.375348,-0.256937,-1.311924
00117,3948134,0.377057,0.146856,9.826376,-0.005245,0.000095,0.000741,-0.373415,-0.265747,-1.310643
00118,3949134,0.373209,0.133615,9.793347,-0.003430,0.000215,0.000818,-0.374903,-0.260861,-1.314178
00119,3950134,0.344253,0.138581,9.824807,-0.007220,0.004842,0.001570,-0.372903,-0.261120,-1.314878
00120,3951134,0.374861,0.142585,9.799600,-0.001441,0.000196,0.001510,-0.374892,-0.257967,-1.312799
00121,3952134,0.370657,0.135548,9.780453,-0.001569,-0.001408,0.002628,-0.377117,-0.259572,-1.311161
00122,3953134,0.383227,0.152016,9.803583,-0.000897,0.001285,0.002087,-0.372052,-0.264078,-1.314270
00123,3954134,0.454228,0.158825,9.767608,-0.002165,0.002322,0.004046,-0.376568,-0.263430,-1.309635
00124,3955134,0.715370,0.126416,9.826361,-0.000478,-0.007686,-0.010149,-0.385181,-0.251081,-1.317881
00125,3956134,1.537189,0.094718,9.751084,0.011197,-0.066896,-0.001985,-0.375947,-0.249112,-1.352602
00126,3957134,1.794212,0.228992,9.628195,-0.008002,-0.018379,-0.035629,-0.374508,-0.252003,-1.345329
00127,3958134,1.580823,-0.078265,9.805269,-0.002643,0.011034,0.017943,-0.360725,-0.265197,-1.347290
00128,3959134,1.389283,0.141370,9.320010,0.038975,0.014753,0.011098,-0.364081,-0.258955,-1.342585
00129,3960134,1.084006,0.210373,9.550851,-0.004087,0.005537,0.001966,-0.355840,-0.256394,-1.354821
00130,3961134,1.376138,-0.145261,10.710329,-0.028530,0.008137,-0.037093,-0.344650,-0.261043,-1.374625
00131,3962134,1.639256,0.105938,11.444057,-0.059746,0.016796,-0.041111,-0.329580,-0.255597,-1.391733
00132,3963134,1.484833,-0.345343,12.118747,-0.027788,0.039058,-0.029422,-0.323778,-0.257207,-1.389136
00133,3964134,1.479541,0.143214,10.093681,-0.006993,0.016548,-0.001505,-0.314807,-0.259404,-1.396044
00134,3965134,1.242608,-0.442759,9.310956,0.008438,-0.012356,0.006732,-0.309626,-0.257355,-1.404872
00135,3966134,0.386217,-0.245030,7.686505,-0.083786,-0.035907,-0.006001,-0.292266,-0.257758,-1.414097
00136,3967134,1.261467,-0.672943,12.959952,0.025187,0.015520,-0.026429,-0.290008,-0.252689,-1.432732
00137,3968134,1.479705,0.638223,8.420756,-0.040269,0.099496,0.002708,-0.262478,-0.254586,-1.453914
00138,3969134,0.960863,0.207453,10.854080,0.035862,0.158194,-0.008145,-0.286196,-0.249175,-1.470946
00139,3970134,0.163339,0.045822,7.959515,0.091026,0.098369,0.004532,-0.278883,-0.260670,-1.429421
00140,3971134,-0.051922,0.695643,9.392053,-0.030123,-0.006826,0.006843,-0.286222,-0.259368,-1.410058
00141,3972134,-0.643409,0.664948,9.018529,-0.001313,0.022986,0.002883,-0.291454,-0.268238,-1.407748
00142,3973134,0.099556,0.523118,10.669277,0.003699,0.010980,-0.000414,-0.279734,-0.261307,-1.419151
00143,3974134,-0.439766,-0.220314,10.454528,0.017527,-0.028236,0.003316,-0.274241,-0.264279,-1.437772
00144,3975134,0.313885,0.091933,10.034945,0.046922,0.015705,-0.017264,-0.259232,-0.259732,-1.452521
00145,3976134,0.155284,1.118180,8.278049,-0.016214,0.042049,0.004845,-0.265535,-0.272265,-1.448882
00146,3977134,0.077807,0.264938,10.478765,-0.020541,-0.039145,0.016811,-0.261491,-0.273616,-1.444142
00147,3978134,-0.654265,0.092233,9.970043,0.011299,-0.015600,-0.018530,-0.279077,-0.271481,-1.444857
00148,3979134,-0.217284,0.827093,9.956542,-0.011008,-0.076664,0.008282,-0.272238,-0.278111,-1.447727
00149,3980134,-0.087381,0.288161,10.419197,-0.027110,-0.000966,-0.002407,-0.277358,-0.272070,-1.463016
00150,3981134,0.650529,0.177114,9.864416,0.018970,-0.044647,-0.000902,-0.262855,-0.280505,-1.461651
00151,3982134,0.399433,0.722033,8.666719,0.063816,0.009128,-0.029795,-0.265595,-0.262377,-1.479157
00152,3983134,-0.165263,0.470046,8.534920,-0.032045,0.005750,-0.009973,-0.277797,-0.260494,-1.460383
00153,3984134,-0.010135,-0.282489,11.606484,0.008682,0.023101,-0.000015,-0.289675,-0.269552,-1.460279
00154,3985134,0.150717,0.712283,10.105683,-0.020391,-0.026298,-0.057837,-0.285890,-0.269040,-1.459362
00155,3986134,0.495607,-0.009880,11.085781,0.000740,0.007496,0.004648,-0.268227,-0.268544,-1.469505
00156,3987134,0.614745,0.679824,8.095181,0.013273,0.022570,0.006107,-0.270820,-0.267190,-1.465591
00157,3988134,0.262839,0.060707,7.590455,0.019125,0.031050,0.000093,-0.275902,-0.273230,-1.464241
00158,3989134,-0.143039,0.770110,9.730816,-0.005775,-0.052375,-0.029145,-0.280253,-0.271616,-1.458186
00159,3990134,-0.363072,0.922048,10.136250,-0.073643,-0.077827,0.019840,-0.290434,-0.269422,-1.458487
00160,3991134,0.152900,0.772854,10.948643,-0.013429,-0.044848,-0.017142,-0.289510,-0.268587,-1.458858
00161,3992134,0.564365,0.406055,9.134028,0.020867,-0.054319,-0.020161,-0.283039,-0.268662,-1.470332
00162,3993134,0.427987,0.651726,9.238362,-0.035094,0.035960,-0.030813,-0.276991,-0.271435,-1.476170
00163,3994134,0.222267,0.551452,9.886255,0.005867,-0.003183,0.021359,-0.293851,-0.272893,-1.461680
00164,3995134,0.054052,-0.079058,10.069135,0.011425,0.000846,-0.002038,-0.285153,-0.266144,-1.453657
00165,3996134,-0.339153,-0.184387,9.895673,-0.025095,-0.058314,-0.020424,-0.294005,-0.270964,-1.461722
00166,3997134,0.992308,-0.403153,9.791925,-0.023121,0.029887,-0.002615,-0.277084,-0.272202,-1.467692
00167,3998134,0.195871,0.133084,9.660872,0.016146,0.026799,-0.029290,-0.289363,-0.270978,-1.480952
00168,3999134,0.170545,0.457603,7.737657,-0.000853,-0.021865,-0.036096,-0.280232,-0.271047,-1.476562
00169,4000134,0.169338,0.651970,9.088272,-0.047968,-0.030161,-0.017346,-0.291556,-0.276310,-1.474554
00170,4001134,0.107788,-0.516674,9.190434,-0.008254,0.013901,-0.006229,-0.287852,-0.273671,-1.463780
00171,4002134,0.078170,0.972435,9.661690,0.061054,-0.018877,-0.004402,-0.293133,-0.276949,-1.468611
00172,4003134,0.753466,0.953843,10.147795,-0.029328,0.018058,0.008903,-0.280876,-0.276771,-1.479867
00173,4004134,0.267770,0.557116,8.445379,-0.047779,0.038324,-0.016682,-0.285963,-0.278053,-1.479517
00174,4005134,0.211874,0.231069,11.031858,-0.010669,0.063360,-0.002700,-0.285561,-0.272329,-1.477654
00175,4006134,-0.446611,0.172603,8.470151,0.007478,0.021132,-0.024869,-0.291847,-0.274315,-1.472257
00176,4007134,0.033501,1.019831,8.813890,-0.059800,-0.021632,-0.026737,-0.277606,-0.272533,-1.486593
00177,4008134,-0.008242,-0.130091,10.633105,-0.017424,0.031983,0.003228,-0.274041,-0.278643,-1.483737
00178,4009134,-0.133328,-0.117709,10.436828,-0.007200,-0.031448,-0.011076,-0.278178,-0.281655,-1.469121
00179,4010134,0.506012,-0.311456,9.077905,-0.043058,-0.012562,0.008401,-0.279358,-0.268216,-1.473195
00180,4011134,0.436649,-0.312213,8.899437,0.015954,-0.023252,-0.020434,-0.277298,-0.267576,-1.476254
00181,4012134,-0.141521,1.098135,11.321761,0.008803,-0.006451,-0.021544,-0.288282,-0.276830,-1.480280
00182,4013134,0.655187,-0.130292,8.502346,-0.041468,-0.002836,-0.002037,-0.267280,-0.296719,-1.486006
00183,4014134,0.011697,-0.077309,11.978555,0.001089,-0.001036,-0.036280,-0.286612,-0.282615,-1.472944
00184,4015134,-0.118832,-0.603570,12.042041,0.025462,-0.012910,0.023308,-0.263592,-0.276210,-1.489113
00185,4016134,-0.077772,0.365877,9.214584,0.005137,0.015744,0.005621,-0.275964,-0.279348,-1.483016
00186,4017134,-0.098241,0.920277,8.897174,-0.012597,-0.031941,-0.003490,-0.272514,-0.279604,-1.475064
00187,4018134,0.275722,0.043246,9.419818,0.008240,-0.039038,0.009979,-0.280250,-0.281594,-1.478319
00188,4019134,0.331791,0.450828,7.086387,-0.013126,-0.061131,-0.012388,-0.283831,-0.277215,-1.472677
00189,4020134,0.804714,0.230179,10.101172,-0.016502,0.076512,-0.033996,-0.266608,-0.270362,-1.501321
00190,4021134,0.160917,-0.154288,10.191281,-0.010999,0.088028,-0.026134,-0.261417,-0.281425,-1.497269
00191,4022134,-0.421565,0.403984,11.848512,-0.030608,0.129674,-0.014447,-0.266073,-0.263541,-1.491919
00192,4023134,-0.470518,0.154239,8.284158,-0.028504,0.034849,0.020707,-0.250868,-0.281358,-1.478108
00193,4024134,-0.858508,0.056338,10.087512,-0.014435,0.012448,-0.041652,-0.254103,-0.280509,-1.456365
00194,4025134,0.088384,0.596506,11.009070,0.041737,-0.055282,-0.011432,-0.250561,-0.281621,-1.488903
00195,4026134,0.246223,0.501612,9.385787,0.000959,-0.019056,-0.007856,-0.251500,-0.280592,-1.490912
00196,4027134,0.726218,0.530364,9.443873,0.040082,0.052469,-0.004843,-0.237897,-0.276882,-1.508174
00197,4028134,-0.286893,0.718179,10.019973,0.051641,0.032911,-0.021292,-0.250049,-0.276994,-1.493138
00198,4029134,-0.581764,0.699595,11.192927,-0.070360,-0.049437,-0.024053,-0.245512,-0.284264,-1.494391
00199,4030134,-0.265231,0.300191,8.731454,-0.014696,-0.045837,0.014264,-0.253269,-0.283227,-1.490149
00200,4031134,-0.009816,-0.011439,10.674718,0.058260,-0.047596,0.005468,-0.243468,-0.281760,-1.499830
00201,4032134,0.492780,0.447388,7.925950,-0.014192,-0.043626,-0.011845,-0.243699,-0.278867,-1.499893
00202,4033134,0.541847,-0.006388,9.493953,-0.036182,-0.030850,-0.019513,-0.235233,-0.274442,-1.513067
00203,4034134,0.026235,0.105045,10.114048,0.014017,0.021186,-0.014687,-0.251265,-0.281053,-1.511605
00204,4035134,-0.066291,-0.141305,11.672886,0.025586,0.013538,-0.008416,-0.249413,-0.284141,-1.511346
00205,4036134,0.227895,-0.473392,8.221814,-0.052579,-0.062455,-0.035571,-0.248216,-0.283437,-1.516393
00206,4037134,0.208301,-0.395079,10.959496,-0.016850,0.012460,0.021505,-0.243914,-0.283056,-1.518710
00207,4038134,0.214777,-0.214837,9.533185,0.001522,-0.012869,-0.024067,-0.242612,-0.282286,-1.519977
00208,4039134,0.234081,0.954836,8.898630,-0.017834,0.004705,-0.016115,-0.243826,-0.281126,-1.517310
00209,4040134,0.316719,0.858190,8.689350,0.012735,-0.033556,-0.015597,-0.251639,-0.282151,-1.520586
00210,4041134,0.439775,-0.058587,10.022196,-0.011107,0.008947,0.014205,-0.241612,-0.282416,-1.520327
00211,4042134,-0.047193,0.788107,10.493130,-0.026566,0.086822,-0.034833,-0.247442,-0.281836,-1.526684
00212,4043134,0.075242,1.363041,9.626775,-0.039662,-0.058407,-0.014681,-0.237733,-0.281136,-1.527887
00213,4044134,-0.277090,0.367421,11.876738,-0.005980,-0.007807,0.007185,-0.247941,-0.279973,-1.531948
00214,4045134,-0.137280,0.187180,11.777325,0.021655,-0.017695,0.010989,-0.242931,-0.277726,-1.532318
00215,4046134,0.340934,0.290945,8.325876,-0.010554,-0.049338,-0.009364,-0.242826,-0.277660,-1.528538
00216,4047134,0.456595,-0.201282,11.919888,-0.020716,-0.004615,-0.010996,-0.240650,-0.270464,-1.537316
00217,4048134,0.030380,0.263067,11.803247,-0.003390,0.001306,-0.006022,-0.243870,-0.276698,-1.534327
00218,4049135,0.205886,1.038197,10.004568,-0.000980,0.033528,-0.026403,-0.246556,-0.272515,-1.532815
00219,4050135,0.165019,0.594487,9.842726,-0.006582,-0.033693,-0.022349,-0.242040,-0.273164,-1.537449
00220,4051135,-0.314109,0.386624,10.394451,-0.002164,0.036838,-0.013588,-0.240266,-0.275287,-1.537211
00221,4052135,0.065549,0.375718,9.974829,0.030307,-0.028270,-0.006175,-0.244007,-0.276632,-1.531989
00222,4053135,0.381140,0.339701,9.842809,-0.004654,0.002951,-0.022283,-0.248121,-0.266664,-1.536371
00223,4054135,-0.057563,0.098261,10.025578,0.012637,-0.057536,0.015252,-0.247141,-0.247761,-1.540724
00224,4055135,-0.004443,-0.146324,10.022362,0.021643,-0.018479,-0.013484,-0.250897,-0.276822,-1.535637
00225,4056135,0.410451,0.794614,10.256258,-0.005031,0.050744,0.001340,-0.243842,-0.275667,-1.530568
00226,4057135,0.247394,0.131248,11.056370,-0.020903,0.017630,-0.007497,-0.252995,-0.268976,-1.538338
00227,4058135,0.027969,0.563450,12.226100,0.002938,-0.001678,-0.017746,-0.248457,-0.272651,-1.550470
00228,4059135,0.218235,0.657476,8.444308,-0.060273,0.064220,0.000011,-0.239898,-0.278247,-1.539487
00229,4060135,-0.066388,-0.147636,10.311200,0.006326,0.007226,-0.018075,-0.246195,-0.283127,-1.535469
00230,4061135,0.142088,-0.117780,10.150718,-0.012308,0.007955,-0.004672,-0.240052,-0.276317,-1.539529
00231,4062135,0.044638,-0.134496,11.308200,0.013181,0.019693,-0.041547,-0.246216,-0.276505,-1.538850
00232,4063135,-0.068969,-0.399979,11.874258,0.006204,-0.034374,-0.010246,-0.247650,-0.278373,-1.545122
00233,4064135,0.305199,-0.367234,8.837552,0.017276,-0.026821,-0.002819,-0.249541,-0.282805,-1.539641
00234,4065135,0.407731,0.578149,9.795414,0.034671,-0.033973,-0.039925,-0.257254,-0.275410,-1.551017
00235,4066135,0.526809,0.822782,7.539261,-0.014734,-0.013140,0.006854,-0.249260,-0.275284,-1.543939
00236,4067135,0.299009,0.288473,8.817463,0.007186,-0.018536,0.006673,-0.253094,-0.277396,-1.530240
00237,4068135,0.160888,-0.059645,9.065109,0.058375,-0.008614,0.010458,-0.244651,-0.282357,-1.535294
00238,4069135,0.247907,-0.083540,10.743977,0.050525,-0.042776,0.011886,-0.251161,-0.282612,-1.539837
00239,4070135,0.489046,0.015475,8.608341,-0.007182,0.077464,0.008591,-0.246618,-0.282229,-1.540712
00240,4071135,0.075529,-0.151033,10.448185,0.022023,0.037623,-0.009304,-0.250392,-0.279847,-1.540250
00241,4072135,0.037980,0.427513,9.449357,0.030396,0.029243,-0.023273,-0.245915,-0.284421,-1.550023
00242,4073135,0.009206,0.775871,8.965410,-0.043200,0.050838,-0.013098,-0.233895,-0.292597,-1.550842
00243,4074135,-0.389657,-0.255463,12.221904,-0.023551,0.014216,0.006669,-0.241827,-0.286605,-1.539144
00244,4075135,-0.227310,0.411488,10.814961,0.086951,0.036211,-0.023538,-0.239096,-0.279210,-1.535140
00245,4076135,0.061625,0.338340,9.217851,0.005912,-0.020985,-0.043583,-0.230368,-0.293818,-1.542868
00246,4077135,0.213058,0.135848,9.879516,-0.009078,0.037197,-0.012679,-0.234577,-0.297028,-1.538151
00247,4078135,-0.438909,0.044864,9.870039,0.068072,-0.037469,0.006448,-0.246273,-0.294574,-1.534868
00248,4079135,-0.077994,0.959528,9.295934,0.071487,-0.105232,-0.012735,-0.240285,-0.298245,-1.538347
00249,4080135,0.374965,1.242759,8.596145,-0.009483,-0.045787,-0.016128,-0.234792,-0.301217,-1.556968
00250,4081135,-0.102791,0.666979,9.421372,0.042630,0.093702,0.003118,-0.251334,-0.307236,-1.530137
00251,4082135,-0.965175,-0.189908,12.585178,0.055956,0.133506,-0.041318,-0.270139,-0.306374,-1.507428
00252,4083135,-1.373195,1.042953,11.032699,0.011424,0.012534,-0.031936,-0.269408,-0.302315,-1.491845
00253,4084135,-2.433591,-0.032338,12.002520,-0.042284,0.018478,-0.020173,-0.284680,-0.303837,-1.471041
00254,4085135,-1.660038,0.502861,10.546836,-0.012478,-0.032641,-0.021252,-0.289493,-0.305250,-1.475368
00255,4086135,-1.119419,0.221246,10.514821,0.001737,-0.064754,-0.010188,-0.286048,-0.300748,-1.468416
00256,4087135,-1.182054,0.716280,9.919646,0.019532,-0.012793,-0.003009,-0.294476,-0.306466,-1.471238
00257,4088135,-1.675149,0.502266,10.648385,-0.021254,0.019997,-0.009681,-0.293779,-0.311091,-1.459792
00258,4089135,-1.459362,0.497576,9.780697,-0.014664,-0.009740,0.008058,-0.305864,-0.295460,-1.468493
00259,4090135,-1.313703,0.496857,9.852387,0.001819,-0.008824,-0.015931,-0.287724,-0.306211,-1.465252
00260,4091135,-0.776720,0.596250,9.728533,-0.009088,-0.020951,0.009850,-0.285303,-0.316183,-1.470965
00261,4092135,0.076876,0.834398,10.088892,-0.013770,-0.047930,0.031135,-0.296893,-0.304847,-1.453646
00262,4093135,0.194104,0.378538,9.776277,0.004172,-0.003779,0.011493,-0.299195,-0.305488,-1.452029
00263,4094135,0.246604,0.503937,9.834155,-0.007366,-0.000802,-0.009823,-0.296854,-0.297327,-1.459385
00264,4095135,0.166146,0.618468,9.802257,-0.005411,0.003222,-0.000162,-0.300507,-0.296742,-1.452763
00265,4096135,0.013293,0.527022,9.777352,0.001874,0.000020,0.010178,-0.302585,-0.307929,-1.451462
00266,4097135,-0.018991,0.517613,9.801176,-0.002660,0.000716,0.003404,-0.305277,-0.307803,-1.461207
00267,4098135,-0.059429,0.536878,9.792142,-0.003594,0.000647,0.000494,-0.299057,-0.305554,-1.454367
00268,4099135,-0.053814,0.545536,9.802718,-0.004303,0.003172,0.004100,-0.298536,-0.310442,-1.456600
00269,4100135,-0.031267,0.534434,9.780960,-0.003146,-0.001238,0.004955,-0.296767,-0.307807,-1.457363
00270,4101135,0.027164,0.524695,9.835079,-0.002609,-0.003193,0.000500,-0.299981,-0.306389,-1.453996
00271,4102135,0.028677,0.539836,9.766915,-0.002554,-0.001684,0.001409,-0.299811,-0.310182,-1.451574
00272,4103135,0.010301,0.546792,9.801655,-0.003767,-0.000907,0.001866,-0.301683,-0.300472,-1.455214
00273,4104135,-0.001727,0.538017,9.801795,-0.000925,-0.002320,0.002845,-0.300832,-0.303430,-1.454605
00274,4105135,-0.006887,0.540773,9.779933,-0.002262,0.002760,-0.000753,-0.301590,-0.303300,-1.452813
00275,4106135,-0.007491,0.530298,9.813120,-0.001648,0.000172,-0.000131,-0.301590,-0.303300,-1.452813
00276,4107135,0.009647,0.548205,9.787609,-0.000589,-0.001401,0.003418,-0.299030,-0.304523,-1.450608
00277,4108135,0.010645,0.533870,9.808256,-0.000851,-0.000377,0.001767,-0.297953,-0.305617,-1.450937
00278,4109135,0.003619,0.541312,9.780122,-0.002580,0.002296,0.003547,-0.298609,-0.326647,-1.454998
00279,4110135,-0.013460,0.529286,9.792235,-0.002101,0.000595,0.001360,-0.297069,-0.305112,-1.467324
00280,4111135,-0.420281,0.514168,9.788256,0.000257,0.017782,-0.011040,-0.296481,-0.305044,-1.460660
00281,4112135,-0.648933,0.662837,9.785186,-0.003894,-0.002360,-0.008991,-0.302519,-0.304597,-1.474577
00282,4113135,-0.160910,0.537318,9.735484,-0.009145,-0.018191,0.006323,-0.297360,-0.303117,-1.465028
00283,4114135,-0.382064,0.498270,9.770144,0.005216,0.029696,-0.009720,-0.297184,-0.295661,-1.473106
00284,4115135,-0.953324,0.943484,9.687887,0.004614,0.011038,-0.011097,-0.282768,-0.306026,-1.473141
00285,4116135,-0.648447,0.444241,9.707597,-0.009254,-0.010119,0.018243,-0.282917,-0.308854,-1.472182
00286,4117135,-0.149322,0.372764,9.647634,0.017806,0.016396,-0.011355,-0.293543,-0.311552,-1.480485
00287,4118135,-0.439789,0.468942,9.308764,0.004619,0.019924,0.007639,-0.292811,-0.303897,-1.475780
00288,4119135,-0.865901,0.321790,9.313653,0.005886,0.006632,-0.016727,-0.273083,-0.307519,-1.487982
00289,4120135,-1.930427,0.701369,9.602997,0.011189,0.080518,0.001336,-0.246889,-0.310054,-1.501778
00290,4121135,-1.934671,0.579111,8.925443,0.000613,-0.011079,0.010283,-0.245878,-0.296502,-1.533384
00291,4122135,-0.822721,0.674455,9.276755,-0.011151,-0.109951,-0.005424,-0.263145,-0.302523,-1.510879
00292,4123135,0.131484,0.044535,10.519779,-0.022095,-0.043474,-0.022551,-0.275781,-0.306231,-1.487849
00293,4124135,0.400624,0.374919,10.712355,0.024664,-0.055158,0.010737,-0.283791,-0.311685,-1.475550
00294,4125135,0.393531,0.447521,10.264148,-0.022948,-0.012174,-0.025930,-0.287703,-0.309237,-1.472749
00295,4126135,-0.032475,-0.108006,10.107591,0.013056,0.016845,0.021439,-0.284873,-0.305832,-1.476221
00296,4127135,-1.188975,0.666966,10.021318,0.019609,0.088689,-0.000229,-0.254135,-0.300794,-1.512650
00297,4128135,-0.780599,0.666117,9.925637,-0.029644,-0.028588,0.022040,-0.250723,-0.301379,-1.520714
00298,4129135,0.083470,0.290344,10.093624,-0.026686,-0.025045,-0.005152,-0.271507,-0.306880,-1.493925
00299,4130135,0.432283,0.174783,9.254025,-0.079626,0.010978,-0.004302,-0.285543,-0.300177,-1.483907
00300,4131135,0.142190,0.339807,8.726229,-0.042446,0.071272,-0.025757,-0.292382,-0.289951,-1.491915
00301,4132135,-0.100116,0.684202,10.246387,0.015288,0.028678,0.008907,-0.271247,-0.296333,-1.490725
00302,4133135,-0.470410,0.709737,10.540544,0.022007,0.019225,0.024716,-0.248085,-0.294751,-1.508231
00303,4134135,-0.912898,0.574517,9.455788,0.026209,-0.031643,0.031524,-0.251761,-0.296360,-1.515246
00304,4135135,0.180078,0.235499,9.251991,-0.036643,-0.013569,-0.005397,-0.265298,-0.303930,-1.499343
00305,4136135,0.290361,0.328998,9.065527,-0.001822,-0.043704,0.002853,-0.265990,-0.298844,-1.488653
00306,4137135,0.188746,-0.033588,9.637648,-0.038420,-0.030270,-0.002021,-0.276384,-0.292024,-1.497515
00307,4138135,-0.157201,0.095724,9.786760,-0.020471,0.041356,-0.003494,-0.280527,-0.299093,-1.494155
00308,4139135,-0.473339,0.404027,9.768608,0.001982,-0.021503,0.017214,-0.256749,-0.296413,-1.501239
00309,4140135,-0.961885,0.407791,10.001154,0.009536,-0.012194,0.019575,-0.258820,-0.289161,-1.532194
00310,4141135,0.255750,0.418623,9.599019,0.001185,-0.071676,-0.004444,-0.266074,-0.310751,-1.510186
00311,4142135,0.447987,0.733291,10.387500,-0.051285,-0.034983,-0.028181,-0.291784,-0.295805,-1.494128
00312,4143135,0.779053,0.477221,10.505711,-0.061110,-0.031866,-0.005247,-0.303479,-0.284536,-1.480589
00313,4144135,0.378274,0.085414,9.321671,0.050386,0.067497,-0.007081,-0.303144,-0.290959,-1.465868
00314,4145135,0.258574,0.446909,10.071421,0.074460,-0.019465,-0.003372,-0.289410,-0.294966,-1.485846
00315,4146135,-0.140883,0.340591,9.350483,-0.066312,0.047027,0.029699,-0.285603,-0.297481,-1.492427
00316,4147135,0.232563,0.090879,8.898247,-0.054578,-0.042105,0.012919,-0.282426,-0.281599,-1.491298
00317,4148135,0.196166,0.468111,9.914588,0.005458,0.010968,-0.016159,-0.292942,-0.288988,-1.494821
00318,4149135,0.150812,0.177203,10.046779,-0.007273,-0.007692,-0.003421,-0.282800,-0.286292,-1.489402
00319,4150135,0.148849,0.279997,9.384419,0.008062,0.019159,0.000637,-0.290260,-0.276002,-1.497956
00320,4151135,-0.120522,0.391625,9.273025,0.000902,0.007492,0.005368,-0.279993,-0.288677,-1.495632
00321,4152135,0.118634,0.165997,11.009201,-0.000313,-0.050750,0.016101,-0.286838,-0.293295,-1.482262
00322,4153135,0.013764,-0.158498,10.386256,-0.054072,0.032670,0.007076,-0.284585,-0.287063,-1.491019
00323,4154135,0.100544,0.073104,9.298405,-0.005588,-0.065476,0.034190,-0.290167,-0.282426,-1.484676
00324,4155135,-0.138222,-0.133463,8.962586,-0.017762,0.043204,-0.009681,-0.293915,-0.287827,-1.490711
00325,4156135,-0.031627,0.653511,9.120090,-0.020657,0.037817,-0.005102,-0.275735,-0.291058,-1.493210
00326,4157135,0.231073,0.671275,10.154896,-0.018404,-0.005278,0.003947,-0.280674,-0.289511,-1.493819
00327,4158135,-0.009612,-0.247791,10.209377,0.050332,-0.018796,0.011171,-0.279393,-0.285715,-1.487588
00328,4159135,0.187701,0.077474,9.759619,0.013987,-0.004579,0.026711,-0.281740,-0.289118,-1.481232
00329,4160135,0.141919,0.337053,9.970541,-0.049667,0.005340,0.002434,-0.292371,-0.287057,-1.490536
00330,4161135,0.143988,0.164814,9.959412,0.016040,0.017870,-0.002700,-0.270999,-0.288680,-1.488904
00331,4162135,-0.765413,0.099361,9.845251,0.039192,-0.014399,0.037736,-0.268236,-0.286636,-1.512152
00332,4163135,0.045344,0.445157,8.821281,0.007778,-0.061728,-0.004743,-0.278323,-0.287270,-1.510053
00333,4164135,0.518695,0.399786,11.003152,-0.024688,-0.007088,-0.013101,-0.287804,-0.280886,-1.488652
00334,4165135,0.544575,0.099177,7.864764,-0.016232,-0.036351,0.014650,-0.300061,-0.281064,-1.477396
00335,4166135,0.481677,0.216393,8.257832,0.006660,0.033299,-0.007881,-0.299512,-0.284922,-1.475871
00336,4167135,-0.875887,-0.007312,9.678197,0.014127,0.043721,0.010460,-0.277335,-0.293890,-1.500903
00337,4168135,-0.342616,0.670287,8.450003,-0.008996,0.022594,0.052009,-0.268994,-0.282910,-1.521238
00338,4169135,0.595943,0.082397,10.493898,-0.027657,0.012909,-0.013346,-0.274482,-0.284697,-1.501617
00339,4170135,0.464161,0.523072,11.219914,0.009798,-0.044163,0.006478,-0.280305,-0.283655,-1.485838
00340,4171135,0.733956,0.346362,9.376195,-0.007643,0.050033,-0.012769,-0.278569,-0.280889,-1.480483
00341,4172135,-0.038435,0.058833,9.416218,0.007644,0.041748,0.025142,-0.261022,-0.283353,-1.495785
00342,4173135,-0.548512,-0.117632,10.093719,0.004993,0.014258,0.015356,-0.261900,-0.277830,-1.511031
00343,4174135,-0.618520,0.219927,10.811272,-0.049917,-0.037073,0.015184,-0.261121,-0.280986,-1.520321
00344,4175135,-0.234168,-0.043113,10.261513,0.023986,-0.037417,-0.004014,-0.274038,-0.288621,-1.503871
00345,4176135,-0.168755,0.410165,6.822650,-0.018400,0.006182,-0.016139,-0.265290,-0.287462,-1.488708
00346,4177135,-0.463399,0.170990,9.480750,0.008804,0.027936,0.022475,-0.258754,-0.287801,-1.512418
00347,4178135,-0.350798,0.410196,9.866129,-0.012827,0.002613,0.004029,-0.258659,-0.281814,-1.499761
00348,4179135,0.712527,0.255491,9.633104,0.004860,-0.007586,-0.005857,-0.269944,-0.283152,-1.492614
00349,4180135,0.798378,0.056919,12.246159,0.027166,0.003544,-0.005862,-0.275652,-0.287965,-1.481932
00350,4181135,0.036116,0.003863,10.894969,-0.021864,0.035169,0.002717,-0.254934,-0.282201,-1.496485
00351,4182135,-0.722968,-0.286620,10.895871,-0.013670,-0.005321,0.051691,-0.244155,-0.270646,-1.520774
00352,4183135,-0.442825,-0.172842,10.619418,-0.058658,-0.015718,-0.004692,-0.255945,-0.281370,-1.508392
00353,4184135,0.366997,-0.390159,11.226084,0.022952,-0.049660,0.011884,-0.278990,-0.274771,-1.464591
00354,4185135,0.653567,0.712559,7.935870,0.024165,-0.024557,-0.011100,-0.282289,-0.285260,-1.482758
00355,4186135,0.655515,0.280281,10.725391,-0.049841,-0.014076,0.016459,-0.275755,-0.279216,-1.475456
00356,4187135,-0.187966,0.086447,11.115162,-0.014171,0.022323,0.018968,-0.269070,-0.280322,-1.489247
00357,4188135,-0.363701,-0.220827,9.438676,-0.037414,0.009897,-0.003858,-0.259653,-0.277627,-1.488154
00358,4189135,-0.571922,-0.737949,13.342500,0.053756,0.055049,0.008492,-0.262187,-0.287784,-1.485978
00359,4190135,-0.635306,0.214811,9.454971,-0.013568,0.015906,0.004081,-0.256401,-0.287531,-1.485760
00360,4191135,-0.146410,0.725129,8.320377,0.027531,0.001612,0.006688,-0.262803,-0.292478,-1.485523
00361,4192135,0.886930,0.677142,10.856010,0.010925,-0.044982,0.032740,-0.278140,-0.286545,-1.474239
00362,4193135,-0.137010,0.290740,10.149517,-0.013424,0.057527,-0.013250,-0.271466,-0.294140,-1.478530
00363,4194135,-0.365942,-0.111913,8.750170,-0.018661,0.054144,0.004134,-0.266346,-0.296585,-1.474120
00364,4195135,-0.243331,0.106099,10.639297,0.035212,0.043375,0.032609,-0.249298,-0.288372,-1.484430
00365,4196135,-0.105293,0.653906,8.320771,-0.008017,0.010490,-0.017096,-0.257017,-0.295820,-1.474427
00366,4197135,0.471027,0.642846,9.675208,-0.009127,-0.019905,0.016692,-0.265098,-0.292657,-1.461771
00367,4198135,-0.048272,-0.369295,15.396505,-0.116685,0.043566,0.008395,-0.256638,-0.299481,-1.464445
00368,4199135,-0.774380,-0.537027,10.259238,0.076726,-0.005341,0.010332,-0.249706,-0.301749,-1.486671
00369,4200135,-0.103082,1.392476,10.556771,0.000636,-0.013532,-0.003785,-0.257736,-0.291765,-1.467497
00370,4201135,0.835900,0.009544,10.033401,-0.063625,-0.111362,0.008645,-0.277668,-0.296629,-1.450977
00371,4202135,0.120621,-0.130340,8.977010,-0.003824,0.011172,0.018909,-0.270130,-0.288282,-1.464781
00372,4203135,-0.851845,0.289893,10.206093,-0.041430,0.019082,0.015118,-0.259907,-0.300124,-1.468596
00373,4204135,-0.963687,-0.059475,9.343590,-0.000082,-0.015363,0.005091,-0.261857,-0.289449,-1.472257
00374,4205135,0.089217,-0.706301,9.938210,-0.004181,0.004282,0.006600,-0.272295,-0.296179,-1.443745
00375,4206135,0.623256,0.689478,8.937735,-0.018588,-0.039990,-0.003329,-0.283540,-0.286401,-1.453217
00376,4207135,0.419311,0.167371,11.143283,-0.019425,0.018743,0.005419,-0.282420,-0.291924,-1.436528
00377,4208135,-0.265880,-0.205288,10.651168,-0.008118,0.016374,0.023691,-0.273443,-0.288092,-1.475071
00378,4209135,-0.869898,0.218353,9.844719,0.042598,-0.072325,0.022512,-0.267833,-0.282883,-1.467398
00379,4210135,0.274742,0.327868,9.512552,-0.046416,-0.113940,-0.003409,-0.293781,-0.285106,-1.451159
00380,4211135,0.599965,0.008871,11.850442,-0.006849,0.024664,0.022528,-0.300329,-0.284067,-1.439707
00381,4212135,0.701446,-0.091111,8.991577,0.059914,-0.061405,0.013267,-0.299852,-0.288123,-1.448079
00382,4213135,0.875586,0.177387,10.931931,-0.001262,0.069552,-0.028306,-0.297390,-0.285354,-1.438398
00383,4214135,-0.544524,0.101923,8.141346,-0.000434,0.073572,0.076304,-0.289507,-0.289351,-1.446357
00384,4215135,-0.474961,-0.746581,12.185102,-0.106657,-0.050463,0.048432,-0.275580,-0.284172,-1.482912
00385,4216135,0.330414,-1.156354,9.654391,0.022528,-0.006238,-0.035015,-0.291396,-0.277778,-1.452377
00386,4217135,0.189948,0.170910,10.983295,0.069279,-0.048396,0.015653,-0.307170,-0.286252,-1.447093
00387,4218135,1.375636,0.375697,10.371254,0.002662,-0.048228,-0.027668,-0.320872,-0.294787,-1.432610
00388,4219135,1.068339,0.864427,8.649828,-0.083842,0.085553,-0.011562,-0.323354,-0.282118,-1.435416
00389,4220135,-0.469470,-0.369987,10.849934,0.005200,0.019910,0.034738,-0.293000,-0.279448,-1.450193
00390,4221135,-0.578530,0.127452,9.207205,0.058883,0.067603,-0.001818,-0.277431,-0.284679,-1.472292
00391,4222135,0.466296,0.296328,10.063265,-0.038464,-0.005257,0.010226,-0.290781,-0.281899,-1.463087
00392,4223135,0.393168,-0.335662,8.316088,-0.026158,-0.025879,-0.003228,-0.299890,-0.279637,-1.453840
00393,4224135,0.403815,-0.526856,10.059733,0.011831,0.027043,-0.013818,-0.300592,-0.277445,-1.444530
00394,4225135,0.159294,0.690277,10.196124,0.020237,-0.006397,0.019952,-0.279201,-0.280123,-1.493286
00395,4226135,-0.543335,0.302732,9.925977,-0.013064,-0.021414,0.018982,-0.297610,-0.281190,-1.469094
00396,4227135,0.395793,0.057459,9.653666,-0.013860,-0.071888,-0.000851,-0.308383,-0.281497,-1.455304
00397,4228135,0.538873,-0.162272,11.217628,0.012729,0.039091,0.002786,-0.308970,-0.276344,-1.440834
00398,4229135,-0.215281,-0.259230,9.023824,0.038485,-0.042481,0.014659,-0.296686,-0.275135,-1.448330
00399,4230136,0.333585,0.704098,9.406376,-0.009970,-0.021565,0.003926,-0.303933,-0.281882,-1.447701
00400,4231136,0.559451,0.043321,9.797832,-0.008810,-0.072098,-0.000988,-0.311476,-0.281875,-1.445776
00401,4232136,0.086467,-0.038429,8.845897,-0.042036,-0.003897,-0.015765,-0.318887,-0.280772,-1.436312
00402,4233136,0.209768,-0.090615,9.591824,0.046258,-0.007369,0.009134,-0.311300,-0.278016,-1.442976
00403,4234136,0.832349,0.938084,7.777876,-0.024091,0.016158,0.014397,-0.296095,-0.297457,-1.461177
00404,4235136,-0.144611,-0.003213,9.130565,-0.044964,0.025519,0.018967,-0.312718,-0.281746,-1.446868
00405,4236136,0.735734,0.100031,11.593933,-0.009173,-0.003894,0.016057,-0.315042,-0.279361,-1.437754
00406,4237136,0.382981,-0.209947,8.997963,0.013717,0.041047,-0.006011,-0.308000,-0.289915,-1.444321
00407,4238136,-0.271332,0.469382,9.121630,-0.006068,-0.020467,0.038943,-0.306284,-0.280527,-1.442346
00408,4239136,0.596918,-0.294738,10.176598,-0.022110,0.030132,0.008318,-0.306526,-0.284123,-1.432910
00409,4240136,0.168844,0.881699,8.963348,-0.039418,-0.030576,-0.009672,-0.312207,-0.280714,-1.440225
00410,4241136,-0.298546,-0.448519,11.389309,-0.016411,0.031284,0.011785,-0.308949,-0.279371,-1.448331
00411,4242136,-0.202529,0.289903,10.371542,0.020362,0.018431,0.012327,-0.301076,-0.273851,-1.458292
00412,4243136,0.500605,0.096513,9.223856,-0.012112,-0.068063,0.004741,-0.310196,-0.278079,-1.439546
00413,4244136,0.385000,-0.450112,12.089147,-0.057434,0.031254,0.006374,-0.327589,-0.273948,-1.435080
00414,4245136,0.468239,-1.256306,10.820586,0.002044,0.061379,-0.007658,-0.312689,-0.271900,-1.432853
00415,4246136,0.267394,0.044423,11.091735,-0.030087,0.033353,0.027340,-0.296603,-0.268447,-1.447931
00416,4247136,-0.662884,-0.760525,10.472831,-0.061175,0.025084,0.035381,-0.284313,-0.271997,-1.454427
00417,4248136,0.194985,0.098296,11.569127,0.012136,0.025722,0.044265,-0.296405,-0.267614,-1.452628
00418,4249136,0.140922,0.162810,9.281218,-0.031850,-0.026128,0.034659,-0.296108,-0.261956,-1.454546
00419,4250136,-0.585703,-0.383255,9.174767,0.027987,-0.008261,0.052167,-0.285539,-0.266540,-1.474896
00420,4251136,-0.288237,-0.080124,9.956047,-0.029911,-0.036842,0.119019,-0.294301,-0.260616,-1.471305
00421,4252136,0.326971,-0.366730,12.646135,0.039230,0.026084,0.110099,-0.299075,-0.261699,-1.459614
00422,4253136,-0.337427,0.200027,7.678681,-0.028719,0.067078,0.109946,-0.283082,-0.255418,-1.477093
00423,4254136,-0.707157,-0.765489,10.083239,-0.006697,0.105224,0.150511,-0.244305,-0.247490,-1.511182
00424,4255136,-0.735835,-0.670376,8.952931,0.084228,-0.054576,0.133660,-0.249601,-0.243685,-1.497259
00425,4256136,0.103848,0.786775,9.523954,0.019410,-0.077082,0.154193,-0.266956,-0.251636,-1.476154
00426,4257136,-0.051618,-0.640424,8.263858,-0.053152,0.021908,0.134710,-0.267340,-0.243217,-1.487137
00427,4258136,-1.096312,-0.113613,10.726870,0.019910,-0.019413,0.124624,-0.246969,-0.237519,-1.506912
00428,4259136,0.274260,-0.399228,9.870020,-0.006922,-0.051062,0.047198,-0.272213,-0.240310,-1.467970
00429,4260136,0.562003,0.535836,9.018458,-0.015344,-0.022635,0.065958,-0.277656,-0.242929,-1.442209
00430,4261136,-0.329964,-0.484529,9.244606,-0.030810,0.015878,0.064773,-0.258745,-0.227718,-1.472638
00431,4262136,-0.838714,-0.381586,11.865967,-0.001924,-0.020330,0.062922,-0.255147,-0.221549,-1.476522
00432,4263136,0.222940,0.312713,11.207763,-0.010401,-0.117300,0.028185,-0.282945,-0.227875,-1.438785
00433,4264136,1.548639,-0.297955,8.410679,0.029098,0.033856,0.047904,-0.296053,-0.228691,-1.417260
00434,4265136,0.149834,-0.109150,11.335405,-0.042345,0.053803,0.048587,-0.282187,-0.231601,-1.429699
00435,4266136,-0.092315,-0.396197,9.013138,0.018933,0.040416,0.042281,-0.256751,-0.226814,-1.463460
00436,4267136,-0.176445,0.443400,10.183744,0.029520,-0.029366,0.000186,-0.272907,-0.221650,-1.448025
00437,4268136,0.494494,-0.386163,10.127362,0.054400,-0.054683,0.012323,-0.278600,-0.235518,-1.413206
00438,4269136,0.227292,0.297433,10.958042,0.038728,-0.056331,0.011842,-0.285159,-0.237373,-1.403133
00439,4270136,0.651203,0.156736,9.759254,-0.009759,-0.064422,0.029955,-0.295152,-0.228425,-1.399255
00440,4271136,0.148801,-0.628734,10.551453,0.000087,-0.066583,0.007834,-0.306639,-0.225838,-1.388412
00441,4272136,1.657817,-0.000512,9.813137,0.013603,-0.099011,0.031554,-0.343520,-0.237687,-1.347924
00442,4273136,2.019501,0.081653,10.928956,-0.038187,0.006316,0.030439,-0.353612,-0.240754,-1.325068
00443,4274136,1.453734,-0.254294,10.803415,0.017288,-0.021997,-0.003543,-0.346278,-0.240893,-1.334554
00444,4275136,-0.040141,-0.056520,10.846777,0.007398,0.068323,-0.010614,-0.339906,-0.242197,-1.359685
00445,4276136,-0.115367,0.185528,8.588446,-0.038315,0.018937,0.010086,-0.324089,-0.236180,-1.390842
00446,4277136,-0.604671,0.478151,10.624346,-0.002627,-0.019976,0.000385,-0.315040,-0.234122,-1.376596
00447,4278136,-0.408088,-0.331140,10.087848,0.036336,-0.017001,0.012260,-0.338339,-0.235637,-1.356751
00448,4279136,1.645898,0.283613,10.029987,-0.019989,-0.082156,0.003598,-0.359167,-0.243901,-1.325223
00449,4280136,1.643808,-0.414492,9.636202,0.006679,0.019041,0.033630,-0.397332,-0.242377,-1.292589
00450,4281136,2.917050,0.428571,10.389267,-0.078659,0.107379,0.064579,-0.375495,-0.247355,-1.311588
00451,4282136,1.416455,-1.109200,8.684448,-0.114608,0.164758,-0.021254,-0.367055,-0.235146,-1.318264
00452,4283136,-0.274217,-0.344079,9.721139,0.122558,0.010114,-0.022313,-0.351223,-0.246999,-1.335541
00453,4284136,0.918764,0.933697,10.109338,0.072060,-0.099477,0.023756,-0.360738,-0.245703,-1.329157
00454,4285136,1.474989,0.116939,9.473278,-0.072590,-0.044090,0.059008,-0.373446,-0.249609,-1.316026
00455,4286136,1.925252,-0.316321,9.687999,0.012814,0.042998,0.012345,-0.381428,-0.246841,-1.321724
00456,4287136,1.266536,0.045562,9.801325,0.011822,0.025796,-0.021489,-0.387835,-0.247030,-1.322488
00457,4288136,0.924541,0.052139,9.724938,0.015461,0.046907,-0.021558,-0.375055,-0.246521,-1.314842
00458,4289136,0.631731,0.219777,9.690009,-0.000670,-0.000149,0.007874,-0.371770,-0.244146,-1.319189
00459,4290136,0.173214,0.038241,9.772124,-0.008081,0.030085,-0.013381,-0.374413,-0.249612,-1.321794
00460,4291136,-0.079482,0.251796,9.849808,0.003942,0.002749,0.003938,-0.374957,-0.254107,-1.311441
00461,4292136,0.062304,0.018944,9.853578,-0.004230,-0.000182,0.009342,-0.373369,-0.250574,-1.316005
00462,4293136,0.326077,0.123520,9.798381,-0.001180,-0.003543,0.000010,-0.377100,-0.257840,-1.319660
00463,4294136,0.162944,0.061238,9.787488,-0.004335,-0.001320,0.001837,-0.374298,-0.255466,-1.326891
00464,4295136,0.048473,0.109389,9.829450,-0.000866,0.002827,0.001810,-0.372260,-0.251800,-1.322452
00465,4296136,0.208319,0.093840,9.785034,0.000971,0.004394,0.002054,-0.375738,-0.256171,-1.323286
00466,4297136,0.160937,0.080089,9.829762,-0.004615,-0.000140,0.002757,-0.375496,-0.256170,-1.321844
00467,4298136,0.087624,0.092625,9.831977,-0.000997,-0.000213,0.001537,-0.377287,-0.252183,-1.324462
00468,4299136,0.191101,0.101972,9.774114,-0.002172,0.000446,0.002411,-0.372622,-0.253599,-1.319176
00469,4300136,0.147013,0.093536,9.835460,-0.003685,-0.000156,0.000117,-0.379572,-0.254687,-1.320465
00470,4301136,0.114660,0.089621,9.812713,-0.000013,0.000779,-0.000522,-0.375331,-0.255205,-1.320422
00471,4302136,0.170615,0.093883,9.784365,-0.005133,-0.002061,-0.000058,-0.376145,-0.257136,-1.326149
00472,4303136,0.143583,0.089862,9.813857,-0.000854,-0.001234,0.003066,-0.376770,-0.252314,-1.327696
00473,4304136,0.150228,0.097630,9.804561,-0.002004,0.002927,0.001308,-0.378161,-0.255013,-1.327829
00474,4305136,0.155111,0.105309,9.849811,-0.001927,0.000180,0.002990,-0.375650,-0.254241,-1.321886
00475,4306136,0.168938,0.083975,9.789777,-0.000775,0.001203,0.001772,-0.375782,-0.258933,-1.318547
00476,4307136,0.129177,0.085979,9.801604,-0.003690,-0.000061,0.000492,-0.377957,-0.250123,-1.321269
00477,4308136,0.154375,0.086806,9.803367,-0.002934,-0.001881,0.003899,-0.377589,-0.253083,-1.323545
00478,4309136,0.161374,0.089039,9.794204,-0.000891,-0.001207,0.000419,-0.379435,-0.254753,-1.322803
00479,4310136,0.143836,0.099290,9.824515,-0.002342,0.001063,0.002772,-0.382616,-0.253466,-1.325554
00480,4311136,0.162333,0.092641,9.807541,-0.003298,0.003172,-0.000985,-0.377117,-0.255976,-1.322039
00481,4312136,0.151418,0.089309,9.812618,0.000892,0.002048,0.002224,-0.395832,-0.247965,-1.276797
00482,4313136,0.157069,0.101442,9.811664,-0.001119,-0.000873,0.004768,-0.371992,-0.259584,-1.327507
00483,4314136,0.154970,0.100216,9.822823,-0.003496,-0.000840,0.002696,-0.377661,-0.256876,-1.322565
00484,4315136,0.152704,0.103072,9.806921,-0.003704,0.003057,0.003188,-0.375178,-0.257134,-1.320380
00485,4316136,0.145237,0.094171,9.829046,-0.003986,0.001318,0.005888,-0.376501,-0.251282,-1.322494
00486,4317136,0.154032,0.109306,9.815286,-0.000390,-0.002487,-0.000407,-0.375375,-0.254372,-1.326561
00487,4318136,0.162470,0.098280,9.804177,-0.000744,0.000534,0.004400,-0.373936,-0.257263,-1.319288
00488,4319136,0.144034,0.087155,9.780883,-0.002911,0.003270,0.000495,-0.375106,-0.253341,-1.321360
00489,4320136,0.151901,0.098898,9.791614,-0.001843,0.000816,0.001318,-0.376963,-0.257905,-1.321998
00490,4321136,0.148483,0.096612,9.818913,-0.002694,0.002120,0.001431,-0.354901,-0.253828,-1.363690
00491,4322136,0.154210,0.084085,9.796764,-0.004083,0.002871,0.000689,-0.373480,-0.254697,-1.331042
00492,4323136,0.154496,0.100554,9.817600,-0.000404,0.000956,0.002795,-0.377617,-0.254113,-1.327304
00493,4324136,0.155089,0.088504,9.805202,-0.001758,-0.000831,0.003579,-0.377743,-0.251153,-1.323586
00494,4325136,0.130670,0.102645,9.820914,0.001221,0.001281,0.000896,-0.377122,-0.251218,-1.323040
00495,4326136,0.148726,0.102861,9.833004,-0.000630,0.004866,0.003175,-0.381214,-0.247871,-1.324041
00496,4327136,0.138608,0.099535,9.816407,-0.002109,-0.002535,0.001270,-0.376682,-0.250384,-1.326295
00497,4328136,0.166801,0.152451,9.649135,-0.001670,0.000893,0.002315,-0.376238,-0.254308,-1.328550
00498,4329136,0.146124,0.103745,9.755477,-0.006695,-0.002269,0.001286,-0.375303,-0.250578,-1.327541
00499,4330136,0.149558,0.076474,9.843755,-0.003295,-0.000852,0.002299,-0.373529,-0.252702,-1.327304
